time,seconds_elapsed,z,y,x
1772557289815868700,0.02386865234375,-0.02654515579342842,-0.05330239236354828,-0.030183278024196625
1772557289835780600,0.043780517578125,-0.020506693050265312,-0.056867003440856934,0.04112711548805237
1772557289855692500,0.063692626953125,-0.011659991927444935,-0.05070394277572632,0.07777324318885803
1772557289875604700,0.083604736328125,-0.014736507087945938,-0.04976673796772957,0.07691085338592529
1772557289895517700,0.103517578125,-0.009931951761245728,-0.022296257317066193,0.039219629019498825
1772557289915429600,0.1234296875,-0.012829066254198551,0.008850757032632828,-0.028218405321240425
1772557289935341600,0.143341552734375,-0.011893891729414463,0.030788294970989227,-0.09725486487150192
1772557289955253500,0.16325341796875,-0.013238991610705853,0.04698024317622185,-0.12026314437389374
1772557289975165700,0.183165771484375,-0.011446939781308174,0.03700567036867142,-0.08769907802343369
1772557289995078700,0.20307861328125,0.0019454373978078365,0.006058156490325928,-0.004125494509935379
1772557290014990600,0.222990478515625,0.02686331607401371,-0.014354145154356956,0.09082577377557755
1772557290034902500,0.242902587890625,0.05370578169822693,-0.028450310230255127,0.1707802414894104
1772557290054814500,0.262814453125,0.06437835097312927,-0.007539461366832256,0.2245110720396042
1772557290074726700,0.2827265625,0.06498102843761444,0.0031012287363409996,0.22139222919940948
1772557290094639600,0.3026396484375,0.069142647087574,-0.005976082291454077,0.16969692707061768
1772557290114551600,0.322551513671875,0.07965154945850372,-0.01676807925105095,0.10838548094034195
1772557290134463500,0.34246337890625,0.0747004970908165,-0.01854470744729042,0.06145929917693138
1772557290154375700,0.362375732421875,0.05829516798257828,-0.008378859609365463,0.02568930946290493
1772557290174287600,0.38228759765625,0.03492993116378784,-0.0020413054153323174,-0.0005060834810137749
1772557290194200600,0.40220068359375,0.003415066050365567,0.02039051055908203,-0.007527332752943039
1772557290214112500,0.422112548828125,-0.009827363304793835,0.03165915608406067,-0.018243230879306793
1772557290234024400,0.4420244140625,-0.01831160858273506,-0.0052687423303723335,-0.023279231041669846
1772557290253936600,0.4619365234375,-0.023095745593309402,-0.00817593652755022,-0.019659439101815224
1772557290273848600,0.4818486328125,-0.03197771683335304,-0.0033712589647620916,-0.0007495041354559362
1772557290293761500,0.501761474609375,-0.036097701638936996,-0.010987184941768646,0.007423980627208948
1772557290313673500,0.521673583984375,-0.029539253562688828,-0.0032940658275038004,0.01572064869105816
1772557290333585400,0.54158544921875,-0.006688403431326151,-0.011089686304330826,0.0076372926123440266
1772557290353497600,0.56149755859375,0.020235475152730942,-0.006047978065907955,0.0010300579015165567
1772557290373409500,0.581409423828125,0.04466875270009041,-0.005793985910713673,-0.008394449949264526
1772557290393322800,0.60132275390625,0.04688427597284317,-0.00916368793696165,-0.028181692585349083
1772557290413234700,0.621234619140625,0.049306996166706085,-0.008115739561617374,-0.039994098246097565
1772557290433146600,0.641146728515625,0.05675387755036354,0.0037651988677680492,-0.045462511479854584
1772557290453058600,0.66105859375,0.06621381640434265,0.021393978968262672,-0.04629674181342125
1772557290472970500,0.680970458984375,0.05545523390173912,0.02378498949110508,-0.02352188341319561
1772557290492883700,0.7008837890625,0.0395481213927269,0.031015712767839432,0.009805142879486084
1772557290512795600,0.720795654296875,0.01929251104593277,0.026376206427812576,-0.026857925578951836
1772557290532707600,0.74070751953125,0.01098666898906231,-0.0334620364010334,-0.07045681774616241
1772557290552619800,0.760619873046875,0.00472191022709012,-0.04889165982604027,-0.030606500804424286
1772557290572531700,0.78053173828125,-0.0047301072627305984,-0.01891595870256424,0.027481403201818466
1772557290592443600,0.800443603515625,-0.004496398381888866,-0.0083993561565876,0.08406250923871994
1772557290612356600,0.820356689453125,-0.0020392693113535643,-0.010585525073111057,0.1476311832666397
1772557290632268500,0.8402685546875,0.016463756561279297,-0.013903813436627388,0.1891937106847763
1772557290652180700,0.8601806640625,0.03480905666947365,-0.01901952549815178,0.17243139445781708
1772557290672092700,0.8800927734375,0.03723466396331787,-0.01715211570262909,0.1040123924612999
1772557290692004600,0.900004638671875,0.04027574136853218,-0.011236140504479408,0.010760731063783169
1772557290711917600,0.91991748046875,0.03723824769258499,-0.012304019182920456,-0.026574047282338142
1772557290731829800,0.939829833984375,0.03288385644555092,0.0015275618061423302,-0.006639290135353804
1772557290751741700,0.95974169921875,0.015340520069003105,0.006169485859572887,0.025320187211036682
1772557290771652600,0.979652587890625,0.0026045157574117184,-0.003827522275969386,0.02454153262078762
1772557290791564800,0.999564697265625,-0.017938606441020966,-0.019789941608905792,-0.002903993707150221
1772557290811477800,1.019477783203125,-0.03568854555487633,-0.012962430715560913,-0.0005371891893446445
1772557290831389700,1.0393896484375,-0.03609703108668327,-0.013899069279432297,0.002646931679919362
1772557290851301600,1.059301513671875,-0.02395506203174591,-0.0070363800041377544,0.01868617720901966
1772557290871213600,1.079213623046875,-0.016789399087429047,-0.009194798767566681,0.016720078885555267
1772557290891125800,1.099125732421875,-0.00880543515086174,-0.00564431119710207,-0.016514208167791367
1772557290911039000,1.1190390625,-0.004458804614841938,-0.0038618671242147684,-0.04930002614855766
1772557290930951000,1.138950927734375,0.006061055697500706,-0.02152416855096817,-0.04362981393933296
1772557290950862600,1.158862548828125,0.010639241896569729,-0.016661792993545532,-0.012136907316744328
1772557290970774500,1.1787744140625,0.0025059902109205723,-0.005850962363183498,-0.0013542546657845378
1772557290990686700,1.198686767578125,-0.014494286850094795,0.006715991534292698,-0.02459700033068657
1772557291010600000,1.218599853515625,-0.03250521421432495,-0.003414973383769393,-0.06498245149850845
1772557291030511900,1.238511962890625,-0.04308057203888893,-0.020182477310299873,-0.08031955361366272
1772557291050423800,1.258423828125,-0.04182382673025131,-0.032767247408628464,-0.07002191245555878
1772557291070335700,1.278335693359375,-0.035514362156391144,-0.03068999946117401,-0.03300246223807335
1772557291090248000,1.298248046875,-0.016906293109059334,-0.018160659819841385,0.019448015838861465
1772557291110161000,1.318160888671875,-0.002846056129783392,0.006602560169994831,0.03680812194943428
1772557291130072800,1.33807275390625,-0.00955723412334919,0.006251526530832052,-0.01269950345158577
1772557291149984800,1.35798486328125,-0.012984147295355797,-0.009494151920080185,-0.053181905299425125
1772557291169897000,1.37789697265625,-0.012181513011455536,0.021393993869423866,-0.05164344236254692
1772557291189809000,1.397808837890625,-0.006497550755739212,0.010730903595685959,0.013334509916603565
1772557291209720800,1.417720947265625,-0.005138208623975515,0.0018658284097909927,0.05147473141551018
1772557291229633800,1.4376337890625,-0.008879045955836773,-0.0175875723361969,0.06053921952843666
1772557291249545700,1.457545654296875,-0.00791618600487709,-0.015540681779384613,0.045869071036577225
1772557291269458000,1.4774580078125,-0.002474460517987609,-0.003050609026104212,0.02042284607887268
1772557291289369900,1.497369873046875,0.0011352612636983395,0.008240355178713799,-0.019185716286301613
1772557291309281800,1.51728173828125,0.001066316501237452,0.00828000158071518,-0.04769107326865196
1772557291329194800,1.53719482421875,0.00839136354625225,0.004711691290140152,-0.06423571705818176
1772557291349106700,1.557106689453125,0.0022195614874362946,-0.003671446582302451,-0.048455316573381424
1772557291369019000,1.577018798828125,-0.00043643993558362126,0.0015126974321901798,-0.02245253138244152
1772557291388930800,1.596930908203125,-0.011999214068055153,0.0006650281138718128,-0.0065384176559746265
1772557291408842800,1.6168427734375,-0.024059519171714783,0.004506894387304783,-0.0038125806022435427
1772557291428755700,1.636755615234375,-0.027079375460743904,0.009932532906532288,0.009160125628113747
1772557291448667600,1.656667724609375,-0.027702482417225838,-0.00016408273950219154,-0.006227253470569849
1772557291468579800,1.676579833984375,-0.025575922802090645,-0.013331757858395576,-0.0241926871240139
1772557291488491800,1.69649169921875,-0.017733756452798843,-0.013142134994268417,-0.02869161032140255
1772557291508403700,1.71640380859375,-0.012766161933541298,-0.0025704517029225826,-0.028058577328920364
1772557291528316700,1.736316650390625,0.00014820878277532756,0.002069287933409214,-0.029250692576169968
1772557291548228900,1.756228759765625,0.014518287032842636,-0.010386809706687927,-0.004492714069783688
1772557291568140800,1.776140869140625,0.026456300169229507,-0.01669452153146267,0.010729785077273846
1772557291588052700,1.796052734375,0.02946835570037365,-0.014115313068032265,0.046356018632650375
1772557291607964700,1.815964599609375,0.02247748337686062,-0.014052423648536205,0.0656723603606224
1772557291627877600,1.835877685546875,0.010979308746755123,-0.024396348744630814,0.06132180243730545
1772557291647789800,1.855789794921875,0.0036446191370487213,-0.014518767595291138,0.046907689422369
1772557291667701800,1.87570166015625,0.011910476721823215,-0.004782714881002903,0.04789614677429199
1772557291687613700,1.89561376953125,0.013300229795277119,0.0046485597267746925,0.042073290795087814
1772557291707525600,1.915525634765625,0.012958207167685032,-0.01907111145555973,0.04740191251039505
1772557291727438600,1.9354384765625,0.01574617251753807,-0.07874670624732971,0.059184182435274124
1772557291747350800,1.955350830078125,0.008300126530230045,-0.09975793957710266,0.09581661969423294
1772557291767263200,1.97526318359375,-0.0012344194110482931,-0.10740181803703308,0.13617724180221558
1772557291787175200,1.995175048828125,-0.01281990297138691,-0.06373365223407745,0.17442159354686737
1772557291807087000,2.015087158203125,-0.023157168179750443,-0.018048787489533424,0.175184965133667
1772557291826999300,2.034999267578125,-0.021693482995033264,-0.002974999602884054,0.12127485871315002
1772557291846912500,2.05491259765625,-0.013135614804923534,-0.0038673721719533205,0.06463344395160675
1772557291866824200,2.07482421875,-0.0028578825294971466,-0.010385260917246342,0.015378918498754501
1772557291886736100,2.094736083984375,-0.0034600230865180492,-0.01148541271686554,-0.03606855869293213
1772557291906648000,2.11464794921875,-0.006227036006748676,-0.015466276556253433,-0.07759816944599152
1772557291926560300,2.134560302734375,0.000664383580442518,-0.006013114936649799,-0.0917116329073906
1772557291946473500,2.154473388671875,0.005459212232381105,-0.001918276771903038,-0.051526833325624466
1772557291966385400,2.174385498046875,0.018492478877305984,-0.013284590095281601,-0.02342677116394043
1772557291986297300,2.19429736328125,0.031894758343696594,-0.024331465363502502,0.0011704297503456473
1772557292006209300,2.214209228515625,0.031178809702396393,-0.051715582609176636,0.023454802110791206
1772557292026121500,2.23412158203125,0.02868989296257496,-0.06832949072122574,0.04730696976184845
1772557292046034400,2.254034423828125,0.03163858503103256,-0.10164137184619904,0.0746411681175232
1772557292065946400,2.2739462890625,0.01962781697511673,-0.10299213975667953,0.09310869127511978
1772557292085858300,2.2938583984375,0.014981205575168133,-0.08030204474925995,0.10644908994436264
1772557292105770200,2.313770263671875,-0.0000849991338327527,-0.10235539823770523,0.11004790663719177
1772557292125682400,2.333682373046875,0.0005797916674055159,-0.189272940158844,0.08917354792356491
1772557292145595400,2.353595458984375,0.039520297199487686,-0.22865739464759827,0.08816559612751007
1772557292165507300,2.37350732421875,0.08202489465475082,-0.19061118364334106,0.11876744031906128
1772557292185419300,2.393419189453125,0.10087823867797852,-0.12474803626537323,0.09695380181074142
1772557292205331200,2.413331298828125,0.12252743542194366,-0.12599091231822968,0.060514118522405624
1772557292225243400,2.433243408203125,0.008720191195607185,-0.06422898918390274,0.019879866391420364
1772557292245156400,2.45315625,0.0016743509331718087,-0.03306309133768082,0.024618253111839294
1772557292265068300,2.473068359375,-0.019342729821801186,0.0151236392557621,0.02546144835650921
1772557292284980200,2.492980224609375,-0.033597856760025024,0.021518098190426826,-0.014215108938515186
1772557292304892400,2.512892333984375,-0.05271003022789955,0.006525831762701273,-0.06740322709083557
1772557292324804400,2.532804443359375,-0.06341177225112915,0.001482850406318903,-0.10317222774028778
1772557292344716300,2.55271630859375,-0.06231727451086044,-0.008178231306374073,-0.127764493227005
1772557292364629200,2.572629150390625,-0.06149127334356308,-0.020240800455212593,-0.1435326188802719
1772557292384541200,2.592541259765625,-0.0497664250433445,0.0078907310962677,-0.1125616580247879
1772557292404453400,2.612453369140625,-0.024290628731250763,0.018860556185245514,-0.042418789118528366
1772557292424365300,2.632365234375,-0.00533136073499918,0.02414826862514019,-0.0011994948145002127
1772557292444277200,2.65227734375,0.0008922534761950374,0.017926819622516632,0.0005487032467499375
1772557292464190200,2.672190185546875,-0.003150037955492735,0.007594896946102381,-0.026545431464910507
1772557292484102100,2.69210205078125,-0.005098224617540836,0.0015583191998302937,-0.05140053480863571
1772557292504014300,2.712014404296875,-0.02033625915646553,0.0015822830609977245,-0.07683954387903214
1772557292523926300,2.73192626953125,-0.03052326664328575,-0.00390067626722157,-0.08853093534708023
1772557292543838200,2.751838134765625,-0.03462517634034157,0.018938811495900154,-0.07666130363941193
1772557292563751200,2.771751220703125,-0.020873919129371643,0.025599168613553047,-0.04348712041974068
1772557292583663000,2.7916630859375,-0.006974264979362488,0.006082182750105858,-0.0334186851978302
1772557292603575300,2.8115751953125,0.007388544734567404,-0.00011929776519536972,-0.029550297185778618
1772557292623487200,2.8314873046875,0.00912892073392868,-0.0070373909547924995,-0.028619255870580673
1772557292643399200,2.851399169921875,0.010121897794306278,-0.005485523492097855,-0.023751409724354744
1772557292663312100,2.87131201171875,0.006663844920694828,0.01686871610581875,-0.01257321611046791
1772557292683224300,2.891224365234375,0.0030533354729413986,0.030259955674409866,-0.0036298956256359816
1772557292703136300,2.91113623046875,0.0002158955903723836,0.022990809753537178,0.004957125056535006
1772557292723048200,2.931048095703125,-0.002357729244977236,0.014259394258260727,-0.0004389339010231197
1772557292742960000,2.950960205078125,-0.0017688379157334566,0.009191985242068768,-0.004543367773294449
1772557292762873000,2.970873046875,-0.008030431345105171,0.006543171592056751,-0.001658844412304461
1772557292782785000,2.990784912109375,-0.013220944441854954,0.013316892087459564,0.010360009036958218
1772557292802697000,3.010697021484375,-0.015667984262108803,0.014642363414168358,0.012146586552262306
1772557292822609000,3.03060888671875,-0.014192133210599422,0.015175565145909786,0.005392977502197027
1772557292842520800,3.050520751953125,-0.01290991809219122,0.007781811989843845,-0.019730836153030396
1772557292862433000,3.07043310546875,-0.008689714595675468,0.0035816924646496773,-0.02360527589917183
1772557292882346000,3.090345947265625,-0.00605331314727664,0.004167602863162756,-0.018998146057128906
1772557292902258000,3.1102578125,-0.0016479425830766559,0.0011737104505300522,-0.011396205984055996
1772557292922169900,3.130169921875,0.0002151083026546985,0.0147763192653656,-0.02412300370633602
1772557292942082000,3.15008203125,0.001380658708512783,0.01692127250134945,-0.03507859259843826
1772557292961994000,3.169993896484375,0.007286194711923599,-0.008179610595107079,-0.038482896983623505
1772557292981907000,3.189906982421875,0.010958142578601837,-0.004790942184627056,-0.028338445350527763
1772557293001819000,3.20981884765625,0.013658842071890831,-0.0031406101770699024,-0.026836415752768517
1772557293021730800,3.229730712890625,0.009115253575146198,-0.009754071943461895,-0.024966556578874588
1772557293041643000,3.24964306640625,0.003657243913039565,-0.004650108516216278,-0.025599991902709007
1772557293061555000,3.269554931640625,0.0006771667394787073,0.003469869028776884,-0.009509972296655178
1772557293081468000,3.289468017578125,0.003767244517803192,0.008655603975057602,-0.007774131838232279
1772557293101379800,3.3093798828125,0.0010755332186818123,-0.004099628422409296,-0.021379994228482246
1772557293121291800,3.329291748046875,-0.0019492002902552485,-0.01593153178691864,-0.034193698316812515
1772557293141204000,3.349203857421875,-0.002370851580053568,-0.0045760395005345345,-0.04308503121137619
1772557293161116000,3.369115966796875,-0.006730149500072002,0.0036166091449558735,-0.04038586467504501
1772557293181028900,3.38902880859375,-0.013863758184015751,0.009568188339471817,-0.0305793359875679
1772557293200940800,3.40894091796875,-0.01536423247307539,0.010378418490290642,-0.025446739047765732
1772557293220852700,3.428852783203125,-0.01640026830136776,0.010184754617512226,-0.024230502545833588
1772557293240765000,3.448764892578125,-0.015680937096476555,0.004484020173549652,-0.021826211363077164
1772557293260676900,3.4686767578125,-0.014145891182124615,0.007141588255763054,-0.020273588597774506
1772557293280589800,3.48858984375,-0.015749743208289146,0.015767548233270645,-0.010437551885843277
1772557293300501800,3.508501708984375,-0.008720897138118744,0.009528204798698425,-0.005108010955154896
1772557293320414000,3.5284140625,0.002327103866264224,0.007984774187207222,-0.006172156892716885
1772557293340326000,3.548325927734375,0.02265842631459236,0.0027491492219269276,-0.0063654715195298195
1772557293360237800,3.56823779296875,0.028892964124679565,-0.020678330212831497,0.013819714076817036
1772557293380149800,3.588149658203125,0.03604195639491081,-0.02026447281241417,0.02941065840423107
1772557293400062700,3.608062744140625,0.041358210146427155,-0.015863575041294098,0.04611137881875038
1772557293419975000,3.627974853515625,0.0414128452539444,-0.014593252912163734,0.04037976637482643
1772557293439886800,3.647886962890625,0.03837687522172928,0.008086459711194038,0.014592966996133327
1772557293459798800,3.667798828125,0.03773735463619232,0.013081730343401432,-0.01908385381102562
1772557293479710700,3.687710693359375,0.025951769202947617,0.010018330998718739,-0.04918215423822403
1772557293499623700,3.707623779296875,0.01618104986846447,0.007307009305804968,-0.060470908880233765
1772557293519535900,3.727535888671875,0.006578422617167234,0.0015161791816353798,-0.05243325233459473
1772557293539447800,3.74744775390625,0.00284482236020267,-0.003951780032366514,-0.0292282085865736
1772557293559359700,3.76735986328125,-0.00891277939081192,0.004371101967990398,-0.001501763705164194
1772557293579271700,3.787271728515625,-0.01995895430445671,0.006580717395991087,0.010688947513699532
1772557293599185000,3.807184814453125,-0.02836848981678486,0.006835087202489376,-0.012432449497282505
1772557293619097000,3.82709716796875,-0.02784358151257038,-0.001077696681022644,-0.032573401927948
1772557293639009000,3.847009033203125,-0.019291959702968597,-0.0019365898333489895,-0.030557962134480476
1772557293658921000,3.8669208984375,-0.01277600321918726,0.0013409624807536602,-0.009105666540563107
1772557293678833000,3.8868330078125,-0.0072637926787137985,0.009515268728137016,-0.0043463315814733505
1772557293698745900,3.906745849609375,-0.0006494990084320307,0.0202553179115057,-0.010852936655282974
1772557293718658000,3.926657958984375,0.007903986610472202,0.01220029592514038,0.0008702604100108147
1772557293738568700,3.946568603515625,0.02290910854935646,0.004986819811165333,0.02764764614403248
1772557293758481000,3.96648095703125,0.02722925879061222,-0.0023134034126996994,0.03265406936407089
1772557293778393000,3.98639306640625,0.011984833516180515,0.004723195917904377,0.0060786958783864975
1772557293798305000,4.006304931640625,-0.004370031878352165,0.015901563689112663,-0.023503834381699562
1772557293818218200,4.02621826171875,-0.014859466813504696,0.017426226288080215,-0.028148699551820755
1772557293838130200,4.046130126953125,-0.00955409836024046,0.009563766419887543,-0.02867484837770462
1772557293858042400,4.06604248046875,-0.007433297112584114,-0.007866103202104568,-0.007692464627325535
1772557293877954300,4.085954345703125,-0.0002788839628919959,-0.010045349597930908,0.015408409759402275
1772557293897866200,4.1058662109375,-0.00040853762766346335,-0.0024947598576545715,0.026131408289074898
1772557293917779200,4.125779296875,-0.0002824854454956949,0.005142644047737122,0.00793252233415842
1772557293937691100,4.145691162109375,0.0004159770323894918,0.006011642515659332,-0.007799393963068724
1772557293957603300,4.165603271484375,0.00641819229349494,0.004859887063503265,0.0074530006386339664
1772557293977515300,4.185515380859375,0.0076173762790858746,0.001719668973237276,0.021686553955078125
1772557293997427200,4.20542724609375,-0.001892632688395679,-0.0005602492019534111,0.02385449782013893
1772557294017340200,4.225340087890625,-0.006650091148912907,0.003204156644642353,0.006680029444396496
1772557294037252000,4.245252197265625,-0.011531325988471508,-0.00019833538681268692,-0.010094855912029743
1772557294057164300,4.265164306640625,-0.011901620775461197,0.005240681581199169,-0.015018653124570847
1772557294077076200,4.285076171875,-0.0034606594126671553,-0.00010964693501591682,-0.01085709873586893
1772557294096988200,4.30498828125,0.005024885758757591,0.0024563176557421684,0.01341086532920599
1772557294116900000,4.324900146484375,0.007585963699966669,-0.003252690425142646,0.04336600750684738
1772557294136813000,4.34481298828125,0.006482155527919531,-0.002124614082276821,0.051826439797878265
1772557294156725200,4.364725341796875,0.00792218092828989,-0.002727263141423464,0.053009986877441406
1772557294176637200,4.38463720703125,0.011126073077321053,-0.0014747316017746925,0.03770434111356735
1772557294196549000,4.404549072265625,0.013202612288296223,-0.0062524802051484585,0.012290161103010178
1772557294216461000,4.4244609375,0.008428490720689297,-0.0052524772472679615,-0.00427962327376008
1772557294236374000,4.4443740234375,-0.003066668752580881,-0.004577052779495716,-0.0040113674476742744
1772557294256286200,4.4642861328125,-0.008002177812159061,0.004141323268413544,-0.0048922039568424225
1772557294276198100,4.4841982421875,-0.011106274090707302,0.0017742966301739216,0.009662594646215439
1772557294296110000,4.504110107421875,-0.014606841839849949,-0.0031704420689493418,0.0037505682557821274
1772557294316022300,4.524022216796875,-0.017800692468881607,-0.0024070991203188896,0.0014677286380901933
1772557294335935200,4.543935302734375,-0.008500201627612114,0.007220708765089512,0.017450660467147827
1772557294355847200,4.56384716796875,-0.000753937114495784,0.008630357682704926,0.018532337620854378
1772557294375759000,4.583759033203125,0.0010381338652223349,0.008356018923223019,-0.016363808885216713
1772557294395671000,4.603671142578125,-0.0016913519939407706,0.019723426550626755,-0.04997102916240692
1772557294415583200,4.623583251953125,0.004156568553298712,0.01336330734193325,-0.05575103312730789
1772557294435495200,4.6434951171875,0.015138772316277027,0.0044145407155156136,-0.03940600901842117
1772557294455408000,4.663408203125,0.015459260903298855,0.0020057586953043938,-0.013198565691709518
1772557294475320000,4.683320068359375,0.009639611467719078,0.0009542955085635185,0.013187426142394543
1772557294495232000,4.70323193359375,0.003026014193892479,0.007131782826036215,0.01798918843269348
1772557294515144200,4.723144287109375,-0.005719667300581932,0.00519860815256834,0.00003748206654563546
1772557294535056100,4.74305615234375,-0.006415398791432381,0.0023027295246720314,-0.004844770301133394
1772557294554969000,4.762968994140625,-0.009767908602952957,-0.003823415609076619,0.006830460391938686
1772557294574881000,4.782881103515625,-0.004961096681654453,-0.0063864802941679955,0.018831031396985054
1772557294594793000,4.80279296875,-0.0015587267698720098,-0.0026351423002779484,0.0188173558562994
1772557294614705200,4.822705078125,-0.0040523293428123,0.006765027064830065,0.0018854195950552821
1772557294634617000,4.8426171875,0.0009087465004995465,0.00438124593347311,-0.0035744640044867992
1772557294654530000,4.862530029296875,0.004089287482202053,0.0010416805744171143,0.02004368230700493
1772557294674442000,4.88244189453125,0.007986726239323616,0.009418901056051254,0.04433349147439003
1772557294694354200,4.902354248046875,0.01240276824682951,0.011299064382910728,0.03915577754378319
1772557294714266000,4.92226611328125,0.006982419174164534,0.011969976127147675,0.014011749997735023
1772557294734178000,4.942177978515625,-0.0012008579215034842,0.004277158994227648,-0.013331632129848003
1772557294754091000,4.962091064453125,-0.010547651909291744,0.006464608013629913,-0.0154926348477602
1772557294774003000,4.9820029296875,-0.007355786394327879,0.0028390330262482166,-0.002740057883784175
1772557294793915100,5.0019150390625,-0.0016521790530532598,-0.0028036623261868954,-0.002441875170916319
1772557294813827000,5.0218271484375,0.000419269927078858,-0.00599040649831295,-0.00014858145732432604
1772557294833739000,5.041739013671875,-0.0027280114591121674,0.00009198300540447235,-0.0016159375663846731
1772557294853651000,5.06165087890625,-0.004234519321471453,-0.000923485029488802,-0.009374745190143585
1772557294873564000,5.08156396484375,-0.007189799100160599,-0.0007229824550449848,-0.015303953550755978
1772557294893476000,5.10147607421875,-0.00749909458681941,0.0047533465549349785,0.0008295896695926785
1772557294913388000,5.121387939453125,-0.0026668678037822247,0.007981815375387669,0.013081439770758152
1772557294933300000,5.141300048828125,0.005130220204591751,0.006692356895655394,0.021204203367233276
1772557294953212000,5.1612119140625,0.0022899589966982603,-0.002214585430920124,0.010653823614120483
1772557294973124900,5.181124755859375,0.004614662379026413,-0.010875485837459564,-0.010506534948945045
1772557294993037000,5.201037109375,-0.001100650755688548,0.00019476190209388733,-0.02387472242116928
1772557295012949000,5.220948974609375,-0.008957169950008392,0.007516019511967897,-0.034542713314294815
1772557295032861000,5.24086083984375,-0.011742672882974148,0.012207516469061375,-0.0299592986702919
1772557295052773000,5.260773193359375,-0.00480381865054369,0.012425066903233528,-0.02024274691939354
1772557295072685000,5.28068505859375,0.004129864741116762,-0.0020832540467381477,-0.021489564329385757
1772557295092598300,5.300598388671875,0.0024153515696525574,-0.00305241160094738,-0.03082868456840515
1772557295112510200,5.32051025390625,0.00790619757026434,0.007041034288704395,-0.020752189680933952
1772557295132422100,5.340422119140625,0.01677391119301319,0.013683410361409187,-0.001303411554545164
1772557295152334300,5.360334228515625,0.02307082898914814,0.01735805533826351,0.022686738520860672
1772557295172246000,5.38024609375,0.01009160466492176,0.020051579922437668,0.046229034662246704
1772557295192159200,5.4001591796875,0.002500839065760374,0.018210800364613533,0.03574022278189659
1772557295212071200,5.4200712890625,-0.009063701145350933,0.011507655493915081,0.016475128009915352
1772557295231983000,5.439983154296875,-0.02134048007428646,0.008565647527575493,0.018686754629015923
1772557295251895300,5.459895263671875,-0.023839179426431656,-0.010708258487284184,0.013887669891119003
1772557295271807200,5.47980712890625,-0.022198297083377838,-0.01853550598025322,0.0043483031913638115
1772557295291720200,5.49972021484375,-0.014824004843831062,-0.011347102001309395,0.0033877009991556406
1772557295311632100,5.519632080078125,-0.0010268561309203506,-0.015758315101265907,-0.0007875275332480669
1772557295331544000,5.5395439453125,0.00814994890242815,-0.005338440649211407,0.003338865702971816
1772557295351456300,5.559456298828125,0.021831925958395004,0.004329338204115629,0.029369674623012543
1772557295371368200,5.5793681640625,0.026494739577174187,0.006175217684358358,0.062183134257793427
1772557295391280000,5.599280029296875,0.024739155545830727,0.006372057367116213,0.07047776132822037
1772557295411193000,5.619193115234375,0.00887048989534378,-0.005937166512012482,0.0479816272854805
1772557295431105000,5.63910498046875,-0.0058478922583162785,-0.00800852570682764,0.002898911479860544
1772557295451017200,5.659017333984375,-0.017457421869039536,0.00015696370974183083,-0.021030114963650703
1772557295470929200,5.67892919921875,-0.021784678101539612,-0.0009722593240439892,-0.03639854118227959
1772557295490841000,5.698841064453125,-0.022527463734149933,0.00011807261034846306,-0.027715623378753662
1772557295510754000,5.718754150390625,-0.02040623128414154,0.004635648801922798,0.002630015602335334
1772557295530666200,5.738666259765625,-0.01636401377618313,-0.0027730362489819527,0.038004349917173386
1772557295550578200,5.758578125,-0.009900521486997604,-0.00041773635894060135,0.04993105307221413
1772557295570490000,5.778489990234375,-0.009655523113906384,0.0020352723076939583,0.025704016909003258
1772557295590402000,5.798402099609375,-0.014493285678327084,-0.0036107925698161125,-0.015145352110266685
1772557295610314200,5.818314208984375,-0.019101211801171303,-0.006941948551684618,-0.0362754724919796
1772557295630227200,5.838227294921875,-0.015279265120625496,-0.0015053772367537022,-0.026913084089756012
1772557295650139100,5.85813916015625,-0.011928142048418522,0.006029822863638401,-0.012914414517581463
1772557295670051000,5.878051025390625,0.002033339813351631,0.007135819178074598,-0.0004978213110007346
1772557295689963000,5.897962890625,0.006367106921970844,0.008088075555860996,0.0076328786090016365
1772557295709875200,5.917875244140625,0.02088158391416073,0.0014667212963104248,0.01788092777132988
1772557295729788200,5.9377880859375,0.03410734236240387,-0.00034552766010165215,0.02754948101937771
1772557295749700000,5.9577001953125,0.028056979179382324,0.006115264259278774,0.029538961127400398
1772557295769612000,5.977612060546875,0.022031227126717567,0.007810641545802355,0.01909901201725006
1772557295789524000,5.99752392578125,0.007356550544500351,-0.0006046672351658344,-0.0044455998577177525
1772557295809436200,6.017436279296875,-0.0062528615817427635,0.006836751475930214,-0.015924759209156036
1772557295829348000,6.03734814453125,0.0005653928965330124,0.0065371133387088776,-0.01810263842344284
1772557295849261000,6.057260986328125,0.007179324049502611,0.0087965726852417,-0.009166190400719643
1772557295869173000,6.077173095703125,0.020211700350046158,-0.0010326746851205826,-0.004784787073731422
1772557295889085000,6.0970849609375,0.012185170315206051,-0.005194629542529583,-0.004234365187585354
1772557295908997000,6.1169970703125,-0.00474147591739893,-0.00130746653303504,-0.011173369362950325
1772557295928909000,6.136908935546875,-0.024983908981084824,0.0030965758487582207,-0.018130602315068245
1772557295948822000,6.156822021484375,-0.023114146664738655,0.007029535714536905,-0.014448028989136219
1772557295968734000,6.17673388671875,-0.01072971522808075,0.010309966281056404,0.005867864936590195
1772557295988646100,6.196646240234375,-0.005384738557040691,0.005487009417265654,0.007873216643929482
1772557296008558000,6.21655810546875,-0.004385761916637421,0.005003169644623995,-0.011298096738755703
1772557296028470000,6.236469970703125,-0.01248197816312313,0.006102989427745342,-0.036113325506448746
1772557296048382000,6.2563818359375,-0.01963573694229126,0.007350204046815634,-0.05320097878575325
1772557296068295000,6.276294921875,-0.02626267820596695,0.010071205906569958,-0.043120887130498886
1772557296088207000,6.29620703125,-0.022280769422650337,0.008552826009690762,-0.009112819097936153
1772557296108119000,6.316119140625,-0.016496160998940468,0.011540630832314491,0.0375523716211319
1772557296128031000,6.336031005859375,-0.013167045079171658,0.003731515258550644,0.048894356936216354
1772557296147943000,6.35594287109375,-0.00995722133666277,0.0019951434805989265,0.03475554659962654
1772557296167855900,6.37585595703125,-0.006590267177671194,-0.0014795628376305103,0.015512587502598763
1772557296187768000,6.39576806640625,-0.0035584571305662394,0.0042020766995847225,-0.007267264649271965
1772557296207680000,6.415679931640625,0.008650175295770168,0.00867190770804882,-0.005872650537639856
1772557296227592000,6.435592041015625,0.011347437277436256,0.005607702769339085,-0.0056955586187541485
1772557296247504000,6.45550390625,0.00879216380417347,0.012547069229185581,-0.009927001781761646
1772557296267416000,6.475416015625,0.005977638065814972,0.015505287796258926,-0.011435499414801598
1772557296287329000,6.4953291015625,-0.0054342057555913925,0.0035016750916838646,-0.02538936771452427
1772557296307241000,6.515240966796875,-0.015150452964007854,0.0010251691564917564,-0.04691804200410843
1772557296327153000,6.53515283203125,-0.02318064123392105,0.0062984898686409,-0.04758405312895775
1772557296347065000,6.555065185546875,-0.021567581221461296,0.011770280078053474,-0.03306110203266144
1772557296366977000,6.57497705078125,-0.020924974232912064,0.015173505991697311,-0.01053847186267376
1772557296386889000,6.594888916015625,-0.013854153454303741,0.020880913361907005,-0.015391412191092968
1772557296406802000,6.614802001953125,-0.014808309264481068,0.018750140443444252,-0.03681863471865654
1772557296426713900,6.6347138671875,-0.016481822356581688,0.015256280079483986,-0.0642416700720787
1772557296446626000,6.6546259765625,-0.01592993550002575,0.0204151663929224,-0.07126707583665848
1772557296466538000,6.6745380859375,-0.009360896423459053,0.022230368107557297,-0.051699940115213394
1772557296486450000,6.694449951171875,-0.002799358917400241,0.011429382488131523,-0.023983044549822807
1772557296506363000,6.71436279296875,-0.0002263944479636848,0.013158297166228294,-0.005940302740782499
1772557296526274800,6.73427490234375,0.004306276328861713,0.022761687636375427,-0.012602253817021847
1772557296546187000,6.75418701171875,0.0017248063813894987,0.01952429860830307,-0.029951445758342743
1772557296566099000,6.774098876953125,0.0017867735587060452,0.009189644828438759,-0.03973758965730667
1772557296586011000,6.794010986328125,-0.0025541239883750677,-0.00023206323385238647,-0.041296832263469696
1772557296605922800,6.8139228515625,-0.017745425924658775,0.019357064738869667,-0.018586544319987297
1772557296625836000,6.8338359375,-0.02951386570930481,0.016713663935661316,0.015923526138067245
1772557296645748000,6.853748046875,-0.041127949953079224,0.02158716507256031,0.03461547940969467
1772557296665660000,6.873659912109375,-0.03790675848722458,0.00246595311909914,0.028180299326777458
1772557296685571800,6.89357177734375,-0.029722124338150024,0.008363055065274239,0.00855083018541336
1772557296705484000,6.913484130859375,-0.01949343830347061,0.016322385519742966,-0.015612766146659851
1772557296725396000,6.93339599609375,-0.01992708630859852,0.011347874999046326,-0.05115807056427002
1772557296745309200,6.95330908203125,-0.017569221556186676,0.005943770054727793,-0.06209229305386543
1772557296765221000,6.97322119140625,-0.015682455152273178,0.01024105679243803,-0.032421041280031204
1772557296785133300,6.99313330078125,-0.004322475753724575,0.005821274593472481,-0.015532072633504868
1772557296805045200,7.013045166015625,0.0019740655552595854,0.006650816183537245,-0.002778673777356744
1772557296824957400,7.03295751953125,0.0002509968471713364,0.002122198697179556,0.00809361133724451
1772557296844870400,7.052870361328125,-0.007579173427075148,-0.0036320711951702833,0.002141484059393406
1772557296864782300,7.0727822265625,-0.006431280635297298,-0.0026283618062734604,0.005881194956600666
1772557296884694300,7.0926943359375,0.00025705379084683955,0.001093634869903326,0.017757661640644073
1772557296904606500,7.1126064453125,0.007131932768970728,0.00021749222651124,0.026918834075331688
1772557296924518400,7.132518310546875,0.012976227328181267,0.0046508293598890305,0.02743975818157196
1772557296944430300,7.152430419921875,0.013362931087613106,0.0002590375952422619,0.00815659947693348
1772557296964343300,7.17234326171875,0.00842516403645277,0.007147836033254862,0.006215155124664307
1772557296984255200,7.192255126953125,0.0033338754437863827,0.006357867736369371,-0.0008918240200728178
1772557297004167400,7.21216748046875,-0.0062657869420945644,0.014867853373289108,0.003245272906497121
1772557297024079400,7.232079345703125,-0.011872004717588425,0.009496969170868397,0.008077649399638176
1772557297043991300,7.2519912109375,-0.016694189980626106,0.006848988123238087,0.009587395004928112
1772557297063903200,7.2719033203125,-0.014744801446795464,0.004809631034731865,-0.002572448458522558
1772557297083816200,7.291816162109375,-0.012813584879040718,0.014411790296435356,-0.02019272744655609
1772557297103728400,7.311728271484375,0.0011598494602367282,0.013897906988859177,-0.013926028273999691
1772557297123640300,7.331640380859375,0.00597138237208128,0.01608010195195675,-0.005791402887552977
1772557297143552300,7.35155224609375,0.01173153705894947,0.012284209951758385,-0.007545557338744402
1772557297163464200,7.371464111328125,0.012774232774972916,-0.0007146280258893967,-0.012404198758304119
1772557297183376400,7.39137646484375,0.0057212430983781815,0.009992597624659538,-0.009317724034190178
1772557297203289300,7.411289306640625,-0.003945836331695318,0.006027986761182547,-0.02425256557762623
1772557297223201300,7.431201171875,-0.014929455704987049,0.027641424909234047,0.02584126591682434
1772557297243113200,7.45111328125,-0.008737395517528057,0.03175864741206169,0.007956238463521004
1772557297263025400,7.471025390625,-0.0058442773297429085,0.025805139914155006,-0.004200422205030918
1772557297282937300,7.490937255859375,-0.002848978154361248,0.0002667517401278019,-0.012756846845149994
1772557297302849300,7.510849365234375,-0.002235427964478731,-0.002425167243927717,-0.004248625598847866
1772557297322762200,7.53076220703125,-0.005957532674074173,-0.025864409282803535,-0.017778383567929268
1772557297342674200,7.550674072265625,-0.011639400385320187,-0.042652737349271774,0.031909819692373276
1772557297362586400,7.57058642578125,-0.02000487968325615,0.03751026839017868,0.17172129452228546
