time,seconds_elapsed,z,y,x
1772557289815868700,0.02386865234375,-0.4455173236221075,-0.20469046914633363,0.023055625688470898
1772557289835780600,0.043780517578125,-0.4213531887024641,-0.23131818116791544,0.06386098920963704
1772557289855692500,0.063692626953125,-0.19263971014022827,-0.17678166780564933,0.07407631294950842
1772557289875604700,0.083604736328125,0.08745616513490677,-0.13261124829817564,-0.01330970955863595
1772557289895517700,0.103517578125,0.2898579753547907,-0.10842387863341718,-0.02211328507075086
1772557289915429600,0.1234296875,0.48142859495878215,-0.05969374999497085,-0.07100697024045512
1772557289935341600,0.143341552734375,0.47323067545592784,-0.1542813744449988,0.022167992666363715
1772557289955253500,0.16325341796875,0.18530863659977911,-0.10826569239702075,0.004000723541341722
1772557289975165700,0.183165771484375,-0.1522135917276144,-0.16672986406441778,0.019547106110863386
1772557289995078700,0.20307861328125,-0.4490075038254261,-0.18682265789192168,0.05125760128945112
1772557290014990600,0.222990478515625,-0.4976759654045105,-0.14222742796796373,0.15178038794212043
1772557290034902500,0.242902587890625,-0.39646658472716806,-0.16322105222586542,0.20188819814193992
1772557290054814500,0.262814453125,-0.19825696550011634,-0.19502318947697056,0.08110350817255675
1772557290074726700,0.2827265625,0.06902268282175064,-0.1386436968628317,-0.011248393114656209
1772557290094639600,0.3026396484375,0.2983569236308336,-0.056012577264197165,-0.013236863518133758
1772557290114551600,0.322551513671875,0.41313773354291916,0.028939916220400482,0.03135612878296524
1772557290134463500,0.34246337890625,0.38845395866334437,0.01867627809308469,-0.05006802617870271
1772557290154375700,0.362375732421875,0.2676882291227579,-0.022506412574183194,-0.12493289569001644
1772557290174287600,0.38228759765625,0.20346680910289286,-0.02653221575785428,-0.15982068746415898
1772557290194200600,0.40220068359375,0.08418167350888252,-0.08913661076882853,-0.1978610980503261
1772557290214112500,0.422112548828125,0.08737667015790938,-0.12618707873588428,-0.11047657337952405
1772557290234024400,0.4420244140625,0.16251403646767137,-0.1366546602037735,-0.06226630389671772
1772557290253936600,0.4619365234375,0.11662439195215701,-0.21270220016101374,-0.018596819648705423
1772557290273848600,0.4818486328125,-0.01842471448481083,-0.23939008140461518,-0.03487524281982332
1772557290293761500,0.501761474609375,0.07860416563749313,-0.18584995866855605,0.08277388907019048
1772557290313673500,0.521673583984375,0.05253390483558178,-0.12351886417362838,0.04496325038559735
1772557290333585400,0.54158544921875,0.15800620365440846,-0.10638406163519248,0.16111551304766908
1772557290353497600,0.56149755859375,0.152318805667758,-0.12337070614090188,0.14630997544070706
1772557290373409500,0.581409423828125,0.1750882713586092,-0.11163845676574856,0.17086902796206996
1772557290393322800,0.60132275390625,0.1623252358973026,-0.13502099458733574,0.01887459541046992
1772557290413234700,0.621234619140625,0.09460194523632526,-0.15429622495425865,-0.016328052732814104
1772557290433146600,0.641146728515625,0.0190881468296051,-0.10233513330426067,0.0035500571643933654
1772557290453058600,0.66105859375,-0.05127250659763813,-0.05714212928339839,-0.0037700383243151007
1772557290472970500,0.680970458984375,-0.034489129579067225,-0.10525120341405272,-0.06708115683253854
1772557290492883700,0.7008837890625,-0.14941080926656722,-0.15530543852942064,-0.12412899542860686
1772557290512795600,0.720795654296875,0.16417115602493285,-0.19536922643566504,-0.10819832624923437
1772557290532707600,0.74070751953125,0.3468640571683645,-0.23894003608217462,-0.01998188079893589
1772557290552619800,0.760619873046875,-0.0640963323354721,-0.18791439865138382,-0.09037639996316284
1772557290572531700,0.78053173828125,-0.24809563990235328,-0.22813695731591432,-0.032531419640034434
1772557290592443600,0.800443603515625,-0.2933253592044115,-0.27943845254601907,0.04700993551602587
1772557290612356600,0.820356689453125,-0.3092582568734884,-0.2434152087348513,0.00006753054456785321
1772557290632268500,0.8402685546875,-0.23334289192855356,-0.06529142387155443,0.10602149366680533
1772557290652180700,0.8601806640625,0.10872633217871189,-0.020793379844911395,0.07009387398352845
1772557290672092700,0.8800927734375,0.4785159223824739,-0.06168638511691242,-0.02855787636656314
1772557290692004600,0.900004638671875,0.6192950969040394,-0.03413684554267674,0.006596548720821738
1772557290711917600,0.91991748046875,0.3377098598539829,-0.008431472530402242,-0.053788270544540134
1772557290731829800,0.939829833984375,-0.023815759873390196,-0.02487593645080924,-0.049311965380702164
1772557290751741700,0.95974169921875,-0.1380880357414484,-0.05200491252541542,-0.09014774230644107
1772557290771652600,0.979652587890625,0.032898060995340345,-0.0659298313729465,-0.06901027999790385
1772557290791564800,0.999564697265625,0.21589666708707808,-0.11377912205625325,-0.10761709229517727
1772557290811477800,1.019477783203125,0.11467851858139037,-0.15808679460994898,-0.13043299094364047
1772557290831389700,1.0393896484375,0.07688157962858677,-0.15249558700677007,-0.0180275683933869
1772557290851301600,1.059301513671875,-0.006507482197880745,-0.1129767926974222,0.03813210745761171
1772557290871213600,1.079213623046875,0.08916589166224002,-0.12162307702228427,0.012465897411946206
1772557290891125800,1.099125732421875,0.22160686142742633,-0.09675488548651337,0.03286163797508925
1772557290911039000,1.1190390625,0.28455636181533334,-0.06003039807081222,0.04159720801860094
1772557290930951000,1.138950927734375,0.10255436554551124,-0.06346252794396132,0.09285367679689079
1772557290950862600,1.158862548828125,-0.11293488978445529,-0.13289488754514603,0.0024984474859200416
1772557290970774500,1.1787744140625,-0.045238487130403515,-0.11351502775996923,-0.09439949973309412
1772557290990686700,1.198686767578125,0.1744698471993208,-0.1372016813609749,-0.18003579249707982
1772557291010600000,1.218599853515625,0.2929711389392614,-0.1933002929408103,-0.12043821461927146
1772557291030511900,1.238511962890625,0.19131167640686034,-0.1418362092938274,-0.05779847430028021
1772557291050423800,1.258423828125,-0.00587853664457798,-0.09356416315380484,0.016067100241687147
1772557291070335700,1.278335693359375,-0.17329554272294043,0.009561462941020726,0.008107537805661558
1772557291090248000,1.298248046875,-0.26726737336218354,0.004298135585337877,0.11598455967865884
1772557291110161000,1.318160888671875,-0.07365443427562714,-0.08190021150819957,0.05106043474953621
1772557291130072800,1.33807275390625,0.327989260828495,-0.11210315166804939,-0.04124631222169846
1772557291149984800,1.35798486328125,0.3078431293785572,-0.14363701163809744,-0.03141781410863623
1772557291169897000,1.37789697265625,0.1347463240981102,-0.1111864386819303,-0.026807744763605295
1772557291189809000,1.397808837890625,-0.28374972160756584,-0.13028958215126768,-0.0223316039965488
1772557291209720800,1.417720947265625,-0.20051380451619624,-0.1461344544770196,0.05242869089543819
1772557291229633800,1.4376337890625,-0.004822890111804009,-0.11887491082530469,-0.007233567982725799
1772557291249545700,1.457545654296875,0.1729746402055025,-0.12108319799192249,-0.014617997411917895
1772557291269458000,1.4774580078125,0.22874971891939638,-0.060241045146808024,0.0061926623613573605
1772557291289369900,1.497369873046875,0.2849818937510252,-0.07419993932917714,0.02412769363308325
1772557291309281800,1.51728173828125,0.24668869571387766,-0.055685354603826995,0.014065788622945547
1772557291329194800,1.53719482421875,0.19553309349417686,-0.07091134611256421,0.043766387017536906
1772557291349106700,1.557106689453125,0.009115618869662284,-0.08459535060999915,-0.03896769976522773
1772557291369019000,1.577018798828125,-0.06878536693453788,-0.11680071663344278,-0.03164437113981694
1772557291388930800,1.596930908203125,-0.056900867873430246,-0.1291666242696345,-0.11621296160705387
1772557291408842800,1.6168427734375,0.057144613501429554,-0.14542000433104113,-0.08753085607262327
1772557291428755700,1.636755615234375,-0.022698154020309447,-0.06535425997469574,-0.1240547063496895
1772557291448667600,1.656667724609375,0.10503566096723078,-0.15544261851040644,0.01278679992938414
1772557291468579800,1.676579833984375,0.16964286543428897,-0.10779712503720074,0.01596362160090357
1772557291488491800,1.69649169921875,0.1351373692423105,-0.09521366566019132,0.07008050304530188
1772557291508403700,1.71640380859375,0.0935848771482706,-0.11644107127450407,0.08008205617032944
1772557291528316700,1.736316650390625,0.1592933208554983,-0.14482706167288123,0.07749781183078884
1772557291548228900,1.756228759765625,-0.03318856837451458,-0.18577592531796544,0.0509158751796931
1772557291568140800,1.776140869140625,-0.06335515857934951,-0.23217611317150294,0.06779955250127241
1772557291588052700,1.796052734375,-0.17181027260124682,-0.15737979711806402,-0.0031180224226787685
1772557291607964700,1.815964599609375,-0.05088906023800373,-0.19969041410302743,-0.07398982197614386
1772557291627877600,1.835877685546875,0.09183949478566646,-0.13185785438129677,-0.08342132012825458
1772557291647789800,1.855789794921875,0.1767085660368204,-0.0663004182510078,-0.06651977835642174
1772557291667701800,1.87570166015625,0.06797989577054978,0.004809299977868795,0.03338726928438991
1772557291687613700,1.89561376953125,0.016168459990620613,-0.03925228886026889,-0.014492361738253384
1772557291707525600,1.915525634765625,0.021514497193694113,-0.09492595302630215,-0.03949893883140757
1772557291727438600,1.9354384765625,-0.0257458511531353,-0.0992313220700249,0.09278795461691916
1772557291747350800,1.955350830078125,-0.22779168754220008,-0.17960300883669406,0.03639421428171918
1772557291767263200,1.97526318359375,-0.1941758336663246,-0.06741393245086073,-0.03947029725881293
1772557291787175200,1.995175048828125,-0.14011574217677117,-0.0032197657641023394,-0.11664488675091415
1772557291807087000,2.015087158203125,0.1496335121065378,-0.06724003718867898,-0.07430669677243568
1772557291826999300,2.034999267578125,0.4083160124748945,-0.09190642254203557,-0.012764094907231628
1772557291846912500,2.05491259765625,0.414132005277276,-0.10852890991047025,0.08753406180986202
1772557291866824200,2.07482421875,0.3853010475903749,-0.16485862683244049,0.09671586865037679
1772557291886736100,2.094736083984375,0.3887257613420486,-0.15234280759785324,0.06787370458287187
1772557291906648000,2.11464794921875,0.3483633558154106,-0.11307393292896449,0.004490032295091077
1772557291926560300,2.134560302734375,0.15040449647903442,-0.08816814932916313,0.044685355892824005
1772557291946473500,2.154473388671875,-0.09970482133328915,-0.1123543864827603,-0.01586262717815116
1772557291966385400,2.174385498046875,-0.07824293110966682,-0.145290003009513,0.01995803413246758
1772557291986297300,2.19429736328125,-0.10697568911910056,-0.08681804989445954,0.03153108349107206
1772557292006209300,2.214209228515625,-0.10625380458533763,-0.13341635413598268,0.0003473156003281474
1772557292026121500,2.23412158203125,-0.11570260093212127,-0.17008410639576613,-0.03935672648227773
1772557292046034400,2.254034423828125,-0.17608780378997324,-0.1306789285287261,0.007608730571204796
1772557292065946400,2.2739462890625,-0.12048165190219878,-0.09923037222195416,-0.08354845363926142
1772557292085858300,2.2938583984375,-0.06857903070747852,-0.10890095809325576,-0.0805536557374522
1772557292105770200,2.313770263671875,0.025968553993105888,-0.095873426476866,-0.1003769484411925
1772557292125682400,2.333682373046875,0.18760873023569583,-0.03796316236518323,0.023776941683364566
1772557292145595400,2.353595458984375,0.13678572097122668,0.06298256240729243,0.3154110438821837
1772557292165507300,2.37350732421875,-0.039542321315407754,0.041695736489631235,0.3028185792148113
1772557292185419300,2.393419189453125,0.1252262160807848,-0.05622698719985783,0.05487149920398369
1772557292205331200,2.413331298828125,0.3574094165802002,0.026292452185228465,0.31563254114575684
1772557292225243400,2.433243408203125,0.23164485583901404,0.0846088859450072,-0.8945265810132026
1772557292245156400,2.45315625,0.12847498874366284,-0.06874174698852002,-0.03725903268381953
1772557292265068300,2.473068359375,0.04933306296765804,0.15383637062385677,-0.20275245028845965
1772557292284980200,2.492980224609375,0.2994809592247009,-0.008418722646683453,-0.06422617839337326
1772557292304892400,2.512892333984375,0.4582084628909826,-0.06123480542451143,-0.13667550206240267
1772557292324804400,2.532804443359375,0.3432183941423893,-0.10671988772712647,-0.06334207076891325
1772557292344716300,2.55271630859375,0.19558453142046928,-0.16021328524462877,-0.03909882446476258
1772557292364629200,2.572629150390625,0.19550211383402347,-0.21614107030220328,-0.02392856346494518
1772557292384541200,2.592541259765625,-0.019079379001259802,-0.15472783957086503,0.09025410702405497
1772557292404453400,2.612453369140625,-0.32674832085669037,-0.11168123646155,0.12846832154085858
1772557292424365300,2.632365234375,-0.21797756501436233,-0.10721939821448176,0.10567883597528561
1772557292444277200,2.65227734375,-0.04660509930849075,-0.1485842587819323,0.03660573814054951
1772557292464190200,2.672190185546875,0.1829530133843422,-0.10491090207640082,-0.013587229592073709
1772557292484102100,2.69210205078125,0.24592998630106447,-0.07238580257929861,0.0256542182137724
1772557292504014300,2.712014404296875,0.25766426323652264,-0.07880198976453394,-0.04110471179392189
1772557292523926300,2.73192626953125,0.22096038021743297,-0.10690284307859838,-0.021902053472865373
1772557292543838200,2.751838134765625,-0.00027180267870426176,-0.16403722744695842,-0.019212047203909604
1772557292563751200,2.771751220703125,-0.12370762821137904,-0.1671100224884227,0.015696285034762694
1772557292583663000,2.7916630859375,-0.04491057035028934,-0.14703158597983418,0.10240192406331189
1772557292603575300,2.8115751953125,0.022698738542199132,-0.1715069788057357,0.09645156429153867
1772557292623487200,2.8314873046875,0.10494389103054999,-0.14094653044510633,0.037818529730103904
1772557292643399200,2.851399169921875,0.08481997141242027,-0.06757690446022897,0.041599911432340736
1772557292663312100,2.87131201171875,0.006271335354447364,-0.03414254463110119,-0.008275505650555714
1772557292683224300,2.891224365234375,-0.007561959686875343,-0.042079730838537215,-0.06722166128177195
1772557292703136300,2.91113623046875,0.028963059633970258,-0.051491263914853334,-0.049483330759080124
1772557292723048200,2.931048095703125,0.0735381144195795,-0.14759524774458258,-0.057862260251492256
1772557292742960000,2.950960205078125,0.1362707571864128,-0.10913312288131564,0.011880142546398565
1772557292762873000,2.970873046875,0.07045066979825496,-0.10788787206057458,-0.005249563691811635
1772557292782785000,2.990784912109375,0.03539163137674332,-0.08984821137059479,-0.009436366123473271
1772557292802697000,3.010697021484375,0.028078678014874455,-0.09416417487356811,-0.017434114278573543
1772557292822609000,3.03060888671875,0.06330255160927772,-0.10259005791340023,-0.019313132958207278
1772557292842520800,3.050520751953125,0.21329788276553152,-0.0830318824192509,-0.007647939203586429
1772557292862433000,3.07043310546875,0.12698796505630017,-0.042710283827036614,0.026205285358428955
1772557292882346000,3.090345947265625,0.06893442001640797,-0.06014149376247078,0.02661631384473294
1772557292902258000,3.1102578125,0.03881342251896858,-0.07809599691964686,0.04039976012865081
1772557292922169900,3.130169921875,0.1223240648984909,-0.1056284757612273,0.04368323877872899
1772557292942082000,3.15008203125,0.11122107160389423,-0.13431352217141537,0.006751173026952892
1772557292961994000,3.169993896484375,0.09374094449281692,-0.12556739420127122,0.0390969247686211
1772557292981907000,3.189906982421875,0.035928806993365286,-0.1278388097319752,-0.021611628292081877
1772557293001819000,3.20981884765625,0.09552256721258164,-0.1344115757184103,0.0011303192041814327
1772557293021730800,3.229730712890625,0.06987082408368588,-0.08241692885868251,-0.02276373006980866
1772557293041643000,3.24964306640625,0.08130582581162452,-0.10033172105997801,-0.02111125015504658
1772557293061555000,3.269554931640625,-0.062111295998096464,-0.11271459809727966,-0.047666591060161585
1772557293081468000,3.289468017578125,0.011848843225836753,-0.06106186001040041,0.02674377614930272
1772557293101379800,3.3093798828125,0.13269523678719997,-0.045079497176408766,0.000029436157038435337
1772557293121291800,3.329291748046875,0.15608020402789116,-0.06368128526117653,-0.03336397974034771
1772557293141204000,3.349203857421875,0.13405892635583877,-0.054621670895069835,-0.05181390173165127
1772557293161116000,3.369115966796875,0.0824567494124174,-0.1046758877441287,-0.04133420970086008
1772557293181028900,3.38902880859375,0.009705401456356047,-0.16067849160358308,-0.047507838568184524
1772557293200940800,3.40894091796875,-0.002653144857287407,-0.10652104068677871,-0.0677582706428133
1772557293220852700,3.428852783203125,0.07235504211485386,-0.06493439059481024,0.0012873181304894387
1772557293240765000,3.448764892578125,0.06966741046607494,-0.0639059243299067,-0.007111594704026356
1772557293260676900,3.4686767578125,0.05843523783385753,-0.07943542882986367,0.013961917256517334
1772557293280589800,3.48858984375,0.004067687830328941,-0.06347739671953022,-0.0068050221060402686
1772557293300501800,3.508501708984375,0.03299626067280769,-0.09603172231111674,-0.01676917496328242
1772557293320414000,3.5284140625,0.08586918820440768,-0.07263996000345796,0.020696696271095424
1772557293340326000,3.548325927734375,0.06420329984128474,-0.08524528415240347,0.07414063775683753
1772557293360237800,3.56823779296875,0.030786767929792402,-0.05127389483712613,0.08673835398806258
1772557293380149800,3.588149658203125,-0.034652211186289784,-0.00391092636603862,0.05961904992409981
1772557293400062700,3.608062744140625,-0.06161269882619381,-0.03069346362315118,0.026807068910170345
1772557293419975000,3.627974853515625,0.01969604959487915,0.012229695769585668,0.004419761804165318
1772557293439886800,3.647886962890625,0.1578741017073393,-0.019264160983636973,-0.06002057079654187
1772557293459798800,3.667798828125,0.3067980042397976,-0.01973258221298456,-0.08090688962191343
1772557293479710700,3.687710693359375,0.3099503307908773,-0.07593216994926333,-0.1149761954868678
1772557293499623700,3.707623779296875,0.19504326415061948,-0.07907678811792283,-0.08982532368535176
1772557293519535900,3.727535888671875,0.019055998125672338,-0.12899514016024768,-0.07619868453149684
1772557293539447800,3.74744775390625,-0.08360767301321029,-0.1442280363338068,-0.07502424305779859
1772557293559359700,3.76735986328125,-0.13916180245280266,-0.11778729825168847,-0.06085075627667829
1772557293579271700,3.787271728515625,-0.02323649868071079,-0.06471110323294997,-0.06285117284627631
1772557293599185000,3.807184814453125,0.20764438704848287,-0.104817049780488,-0.02318221121020615
1772557293619097000,3.82709716796875,0.2297860762298107,-0.12338179379049688,0.0034327235281933098
1772557293639009000,3.847009033203125,0.10490531258583068,-0.11146485376451164,0.012967042733961716
1772557293658921000,3.8669208984375,-0.05883388176262378,-0.1291559567451477,0.04707626048419624
1772557293678833000,3.8868330078125,-0.0026952304333448408,-0.13676131718233228,0.04007967046196572
1772557293698745900,3.906745849609375,0.12050620182156561,-0.1309867889015004,0.04837454753327183
1772557293718658000,3.926657958984375,0.02690437353849411,-0.14336491669844836,0.11318493728907779
1772557293738568700,3.946568603515625,-0.10382686969935893,-0.06400631596446037,0.08525588774480856
1772557293758481000,3.96648095703125,0.024168811094760892,-0.024033676940388975,-0.001624253900698386
1772557293778393000,3.98639306640625,0.2171978128135204,-0.05709441768415272,-0.12163252070406451
1772557293798305000,4.006304931640625,0.20962825434207916,-0.09697020873762667,-0.11595761687280609
1772557293818218200,4.02621826171875,0.11915537173449993,-0.08105462752953171,-0.06211488989440258
1772557293838130200,4.046130126953125,0.05143266559541225,-0.07467574014738201,0.014185862205503507
1772557293858042400,4.06604248046875,-0.03150923698544502,-0.10444554958697408,0.03514730122685432
1772557293877954300,4.085954345703125,-0.05085281988084316,-0.1029017542110756,0.04860357508275192
1772557293897866200,4.1058662109375,-0.00253448691368103,-0.05997443009987473,0.030338530971948056
1772557293917779200,4.125779296875,0.1804950988382101,-0.07641297573614865,-0.029638177849981
1772557293937691100,4.145691162109375,0.15432488479316234,-0.08262162111792713,-0.00741797550576739
1772557293957603300,4.165603271484375,-0.01520692148208618,-0.05378039776533842,0.0371554992441088
1772557293977515300,4.185515380859375,-0.02937690113186836,-0.041380934919416905,-0.010704011439112945
1772557293997427200,4.20542724609375,0.07832827130556107,-0.05067866889033466,-0.04913313821507617
1772557294017340200,4.225340087890625,0.18699381320774555,-0.07483177095931023,-0.07116569076639134
1772557294037252000,4.245252197265625,0.17833704402148723,-0.08735869610980153,-0.031533380479435436
1772557294057164300,4.265164306640625,0.1112356846511364,-0.08804317124262452,-0.028496181907737627
1772557294077076200,4.285076171875,0.08140753262042999,-0.05543050305992365,0.014179820623784326
1772557294096988200,4.30498828125,-0.07961831111609935,-0.06115655255652964,0.019041476409975437
1772557294116900000,4.324900146484375,-0.1543517728000879,-0.018567082097567616,0.05176849168734625
1772557294136813000,4.34481298828125,-0.012257424026727675,-0.051263629171438514,-0.016934722522227094
1772557294156725200,4.364725341796875,0.04972819976508617,-0.04696132886763662,0.03669777293871156
1772557294176637200,4.38463720703125,0.1606961733907461,-0.05242145743705332,0.0167613524164306
1772557294196549000,4.404549072265625,0.24789105724096297,-0.04072605120725929,-0.001712868332490325
1772557294216461000,4.4244609375,0.1576245108604431,-0.024573555970750748,-0.051358865140262056
1772557294236374000,4.4443740234375,0.08028232798278331,-0.09552077711429446,-0.07232936881748028
1772557294256286200,4.4642861328125,0.060407999211549754,-0.09499499967452138,-0.02959329296206124
1772557294276198100,4.4841982421875,0.025669278785586357,-0.05506477502007037,-0.019841275885002688
1772557294296110000,4.504110107421875,0.08291793718338013,-0.05288078204449266,0.008649097336456179
1772557294316022300,4.524022216796875,0.09008242198526858,-0.02397233867458999,-0.0054763718847418204
1772557294335935200,4.543935302734375,-0.00846446148455143,-0.02442216480132192,0.012538515123585238
1772557294355847200,4.56384716796875,0.067986910033226,-0.026083485609665513,-0.008832911204453557
1772557294375759000,4.583759033203125,0.20323300034701822,-0.013753946194797754,-0.03360574804039206
1772557294395671000,4.603671142578125,0.2718886034220457,-0.003667911390401423,-0.020729045904427767
1772557294415583200,4.623583251953125,0.13062193764448166,-0.03156874862033874,0.03995674733519554
1772557294435495200,4.6434951171875,-0.05860708726942539,-0.07532496130373328,0.0831432703718543
1772557294455408000,4.663408203125,-0.09941782108545302,-0.06610310558062046,-0.006939494106709025
1772557294475320000,4.683320068359375,-0.04510930779278278,-0.07947627229690551,-0.07290150614962913
1772557294495232000,4.70323193359375,0.02420037527680397,-0.09546122894678265,-0.06513869012841023
1772557294515144200,4.723144287109375,0.15910042863190174,-0.09887092779241502,-0.016887714175879955
1772557294535056100,4.74305615234375,0.10781038637757301,-0.10816625061053782,0.03198950391621329
1772557294554969000,4.762968994140625,-0.0029290391892194748,-0.061483154162392015,-0.03150458820979111
1772557294574881000,4.782881103515625,-0.05438683922588825,-0.009361337259039282,0.00708838279179763
1772557294594793000,4.80279296875,0.06665010847151279,-0.049724290774948894,0.0110722099972656
1772557294614705200,4.822705078125,0.15440788690149784,-0.015983239616826177,-0.00047254484861623494
1772557294634617000,4.8426171875,0.1295961017280817,-0.05560823424700647,0.003706348271225579
1772557294654530000,4.862530029296875,-0.03744681034088135,-0.05527597008533775,-0.012961101616942323
1772557294674442000,4.88244189453125,-0.12072364396452903,-0.08167929876651614,-0.01329337947834283
1772557294694354200,4.902354248046875,0.051913142588734626,-0.06740735657960176,0.017454015422286466
1772557294714266000,4.92226611328125,0.2412842063218355,-0.06128383219800889,-0.013383884473121724
1772557294734178000,4.942177978515625,0.22740005787611006,-0.02745133989676833,-0.049930005947500467
1772557294754091000,4.962091064453125,0.08701952728331089,-0.04378412360362708,-0.02864373258568812
1772557294774003000,4.9820029296875,-0.01106909102499485,-0.0212450326025486,-0.004804769933223724
1772557294793915100,5.0019150390625,0.0499754525244236,-0.04635740815773606,0.03462653788891621
1772557294813827000,5.0218271484375,0.07347381701171397,-0.07053842114694416,0.02351745278025046
1772557294833739000,5.041739013671875,0.07871522479653358,-0.07596135951112955,0.006012739217188209
1772557294853651000,5.06165087890625,0.13127601763904093,-0.1068301431685686,-0.004625285180471837
1772557294873564000,5.08156396484375,0.10696692129075526,-0.08741711176615208,-0.02534915258628316
1772557294893476000,5.10147607421875,0.011394669717550278,-0.06758527042977512,0.01038596759904176
1772557294913388000,5.121387939453125,0.001600420933961868,-0.0269779136987403,0.03751776125181932
1772557294933300000,5.141300048828125,0.009964929175376891,-0.03367350234724581,0.04743462263492401
1772557294953212000,5.1612119140625,0.09659048870503902,-0.058161243198066946,0.013769289894402027
1772557294973124900,5.181124755859375,0.2001321117222309,-0.018456242134235797,0.035605296960310076
1772557294993037000,5.201037109375,0.16315525698065758,-0.041161154688894745,-0.02763394818836823
1772557295012949000,5.220948974609375,0.12252981660366058,-0.03141465403717011,-0.041942555424128655
1772557295032861000,5.24086083984375,0.046316930016875264,-0.009241144945472478,-0.002388972929189913
1772557295052773000,5.260773193359375,0.020610826352238654,-0.04695201305001974,0.03780056024857331
1772557295072685000,5.28068505859375,0.12518997572362422,-0.10140804505459963,0.05992379132460337
1772557295092598300,5.300598388671875,0.11535539492964744,-0.13292579414006322,0.046248212162218985
1772557295112510200,5.32051025390625,0.008414192602038384,-0.11529668701235204,0.03561945106653729
1772557295132422100,5.340422119140625,-0.09295651611685753,-0.05225139809977263,0.011602910207328386
1772557295152334300,5.360334228515625,-0.07165478489100932,-0.02240742744542658,0.00012274959683418273
1772557295172246000,5.38024609375,-0.06445405973196029,-0.038993966717645524,-0.11066370258261449
1772557295192159200,5.4001591796875,0.11522855367958545,-0.02899418542459607,-0.07007331525268964
1772557295212071200,5.4200712890625,0.17907763325572013,-0.08930690756812691,-0.06351824018657207
1772557295231983000,5.439983154296875,0.06761106245815754,-0.044500345581583674,-0.12008548305830917
1772557295251895300,5.459895263671875,0.05594575910568237,-0.02958630609884858,-0.04799201448909007
1772557295271807200,5.47980712890625,0.10030921696722507,-0.01285652243103832,-0.006811075104202609
1772557295291720200,5.49972021484375,0.08214519924521446,-0.016439933875761925,0.05294273223164491
1772557295311632100,5.519632080078125,0.09484627538621425,0.012487141129374503,0.09139595226924865
1772557295331544000,5.5395439453125,0.06521276914477347,-0.014294409747049212,0.04233897542976774
1772557295351456300,5.559456298828125,-0.11223872421383857,-0.0649854266623035,0.05788133941129781
1772557295371368200,5.5793681640625,-0.1393909350335598,-0.040825018069706856,0.036595680254127363
1772557295391280000,5.599280029296875,-0.005711947906017303,-0.07242204293645918,-0.036971313200064464
1772557295411193000,5.619193115234375,0.23829671494364738,-0.05537157594691962,-0.0898637742659077
1772557295431105000,5.63910498046875,0.3076800477713346,-0.08948650191873311,-0.06659017671151087
1772557295451017200,5.659017333984375,0.24657120681405065,-0.09322806306723505,-0.07784330993336624
1772557295470929200,5.67892919921875,0.18727672180235386,-0.06046688979193568,-0.03864011634525377
1772557295490841000,5.698841064453125,0.010222703328728676,-0.04214669512752443,-0.01716737136747688
1772557295510754000,5.718754150390625,-0.1303320147871971,-0.021481727435253558,-0.025144898718455804
1772557295530666200,5.738666259765625,-0.1787169832497835,0.002884396329894662,0.026514737183379475
1772557295550578200,5.758578125,-0.05404898557364941,-0.023840967379882932,0.03755813892798032
1772557295570490000,5.778489990234375,0.17469897978007792,-0.008500847972184419,0.009568844813166652
1772557295590402000,5.798402099609375,0.33357261391878124,-0.022854550158418713,-0.02462890973704634
1772557295610314200,5.818314208984375,0.21425883675217627,-0.06262560219578445,-0.02790518917806912
1772557295630227200,5.838227294921875,0.049475686308741565,-0.09105218033287674,0.011033142928779124
1772557295650139100,5.85813916015625,0.008065233033895492,-0.12548234626632182,0.02297034714136971
1772557295670051000,5.878051025390625,0.0016863456517457961,-0.11394256898965686,0.105696645626612
1772557295689963000,5.897962890625,0.03036591216921806,-0.0816026898663491,0.05461480732944328
1772557295709875200,5.917875244140625,0.037577158722281456,-0.07895334440134465,0.03596495830226922
1772557295729788200,5.9377880859375,-0.03759995507597923,-0.08060352276116609,0.0603443502576556
1772557295749700000,5.9577001953125,-0.0037380174845457075,-0.042903358713723715,-0.036395760068122764
1772557295769612000,5.977612060546875,0.11632570126652717,-0.030435251078382134,-0.01523700837638462
1772557295789524000,5.99752392578125,0.2150122854679823,-0.03552442744355649,-0.07806536431936546
1772557295809436200,6.017436279296875,0.1588274569094181,-0.048729434518702326,-0.07750062484238296
1772557295829348000,6.03734814453125,0.10046703787744045,-0.07804258623197674,-0.016824172536551486
1772557295849261000,6.057260986328125,0.026222821015119552,-0.08326254936996846,0.003738558623951394
1772557295869173000,6.077173095703125,0.01581131711602211,-0.08598883252870292,0.03430090439743362
1772557295889085000,6.0970849609375,0.07808744828701018,-0.09830719296243041,-0.0809541536965873
1772557295908997000,6.1169970703125,0.1079062479674816,-0.05751403133571147,-0.10004646524465642
1772557295928909000,6.136908935546875,0.06971475673913956,-0.09760649734716861,-0.13520565783870406
1772557295948822000,6.156822021484375,0.061626142829656595,-0.029188429355062544,-0.01683872621828923
1772557295968734000,6.17673388671875,-0.00511865818798542,-0.01596599622108042,0.01656663584521739
1772557295988646100,6.196646240234375,0.04390343913435936,0.013837423227168619,-0.004008645411249017
1772557296008558000,6.21655810546875,0.09552081364691258,-0.001531155090034008,-0.017231334273557875
1772557296028470000,6.236469970703125,0.20883564265966414,-0.03311718363873661,-0.043837465792638246
1772557296048382000,6.2563818359375,0.18738602739572524,-0.0892744300706312,-0.00654756418816396
1772557296068295000,6.276294921875,0.018422376397252083,-0.12383114499319343,-0.028146203992865045
1772557296088207000,6.29620703125,-0.12814356483221054,-0.07848346186727286,0.02657347478342708
1772557296108119000,6.316119140625,-0.19606500841379165,-0.10364026108607649,0.017687248789425937
1772557296128031000,6.336031005859375,0.017225860089063644,-0.07392437379080802,0.052207604623818765
1772557296147943000,6.35594287109375,0.170220957583189,-0.1390420850632712,0.026577306141750884
1772557296167855900,6.37585595703125,0.1922977648347616,-0.1303521807923913,0.06253982360847293
1772557296187768000,6.39576806640625,0.20615151814222335,-0.0985710315303877,0.040258662024373185
1772557296207680000,6.415679931640625,0.13154489770829678,-0.011662125014699995,0.049787597235548306
1772557296227592000,6.435592041015625,0.046559506601095195,-0.022333266230672597,0.053534734174888576
1772557296247504000,6.45550390625,0.0674035571873188,-0.015392799443006514,-0.02459949184631696
1772557296267416000,6.475416015625,0.047107788133621216,-0.03519344192352146,-0.03772882845292333
1772557296287329000,6.4953291015625,0.11877309441864489,-0.06274517345484346,-0.10774047207967377
1772557296307241000,6.515240966796875,0.17323767505586146,-0.06892828253656626,-0.055402756536472586
1772557296327153000,6.53515283203125,0.1007651440411806,-0.07337642105184496,-0.0806635549858678
1772557296347065000,6.555065185546875,-0.017854805642366408,-0.09831789701953529,-0.06982886180521454
1772557296366977000,6.57497705078125,-0.040005847173929215,-0.06760591135900468,-0.025173179531446658
1772557296386889000,6.594888916015625,0.06376666198968887,-0.07594375078920275,0.010381050536973633
1772557296406802000,6.614802001953125,0.1612193204820156,-0.0579590716894716,-0.02801164522722829
1772557296426713900,6.6347138671875,0.1877759034961462,-0.018885719592683016,-0.03667016112928977
1772557296446626000,6.6546259765625,0.14084756358265876,-0.021229761968180536,-0.009286580105952453
1772557296466538000,6.6745380859375,-0.03348082931935787,0.014125190659984946,0.024901522983214817
1772557296486450000,6.694449951171875,-0.06973755309283733,-0.003465155359916389,0.007032983359729405
1772557296506363000,6.71436279296875,-0.07443477099835873,-0.005463014646247029,-0.015739804516080765
1772557296526274800,6.73427490234375,0.07434241653978824,-0.04739142738059163,-0.0300239371809992
1772557296546187000,6.75418701171875,0.1425450151503086,-0.084120152579993,-0.02693114281441085
1772557296566099000,6.774098876953125,0.175092363011837,-0.09739409670550375,-0.008242772424733267
1772557296586011000,6.794010986328125,0.07794950112104415,-0.09093282826952635,-0.013469297734252176
1772557296605922800,6.8139228515625,-0.062356795191764826,-0.08729604266975075,-0.09656187453190795
1772557296625836000,6.8338359375,-0.15742051272094248,-0.022178039136342705,-0.10450060424245894
1772557296645748000,6.853748046875,-0.018777765706181525,-0.007183700959011912,-0.13485257921786978
1772557296665660000,6.873659912109375,0.09681085345745086,-0.05332567626778036,-0.03979518639820162
1772557296685571800,6.89357177734375,0.1731312920719385,-0.01107402292843908,0.04798368048558477
1772557296705484000,6.913484130859375,0.2029074216544628,-0.04066423801742494,0.05053399515605997
1772557296725396000,6.93339599609375,0.2357552137672901,-0.047842787877283986,0.05311374141699634
1772557296745309200,6.95330908203125,0.10938333478271961,-0.03576141453720629,0.04422453801461961
1772557296765221000,6.97322119140625,-0.06152618958652019,-0.05348097642734646,0.042174487316748124
1772557296785133300,6.99313330078125,-0.00843698895573616,-0.03314177009072154,0.0662684841762064
1772557296805045200,7.013045166015625,-0.031149171501398086,-0.0702915337137878,0.0302195853339741
1772557296824957400,7.03295751953125,-0.023107903864979743,-0.08129252793863415,-0.0026634927213657644
1772557296844870400,7.052870361328125,0.1000029274970293,-0.060586241855286056,0.0315672644827282
1772557296864782300,7.0727822265625,0.07455109085440635,-0.05725753582399338,0.018873220870713702
1772557296884694300,7.0926943359375,0.017146365112066266,-0.08035944833960383,0.05215607536598108
1772557296904606500,7.1126064453125,0.03733633570373058,-0.10972316119633614,0.02592661911409814
1772557296924518400,7.132518310546875,0.07856675623655318,-0.08560823571328073,-0.018190796131081877
1772557296944430300,7.152430419921875,0.16254501612782477,-0.051291284363344306,-0.0014850737588712945
1772557296964343300,7.17234326171875,0.07121113277673721,-0.02785977456718683,-0.07674335846798494
1772557296984255200,7.192255126953125,0.08852291758358478,-0.013951003136858344,-0.06820907858365681
1772557297004167400,7.21216748046875,0.008428221127390861,-0.0017820976438000797,-0.10582884803838095
1772557297024079400,7.232079345703125,0.03693067751228809,-0.001088452823832631,-0.021265929260104892
1772557297043991300,7.2519912109375,0.07560965999662876,-0.05784899891111999,-0.05343966716942377
1772557297063903200,7.2719033203125,0.11851941191852092,-0.07403853822238743,-0.021580721697164698
1772557297083816200,7.291816162109375,0.16766951953470707,-0.044797209636308254,0.004622517834650352
1772557297103728400,7.311728271484375,0.06885960121452808,-0.050592123118042946,0.04681090581258759
1772557297123640300,7.331640380859375,0.055417935839295385,-0.036939189612306654,-0.021351853977888823
1772557297143552300,7.35155224609375,0.062322892922163003,-0.010163958878815174,0.013633973076939582
1772557297163464200,7.371464111328125,0.0459101027816534,-0.059333173054270445,0.02234675589990802
1772557297183376400,7.39137646484375,-0.006861702463030815,-0.025401933086290955,-0.046630854804255065
1772557297203289300,7.411289306640625,0.10573124201595782,0.0010097250318154693,-0.07806337329167873
1772557297223201300,7.431201171875,-0.18490648553967476,0.005273775684460997,-0.08551942491866647
1772557297243113200,7.45111328125,0.09291735315024852,0.031571123240515586,0.05020272194165736
1772557297263025400,7.471025390625,0.1964250738978386,-0.12391009198091923,0.0046898839824367315
1772557297282937300,7.490937255859375,0.10069324784874915,-0.11692713775839655,-0.00789202275830321
1772557297302849300,7.510849365234375,0.06064356153309345,-0.12225837925113738,-0.029852985077863558
1772557297322762200,7.53076220703125,0.1487228270024061,-0.07885905371401458,0.034114551512477914
1772557297342674200,7.550674072265625,-0.25891455555856224,-0.06980539416465908,-0.0015448822212871163
1772557297362586400,7.57058642578125,-0.7816472208082675,-0.07391385239679366,-0.04662089053266681
