time,seconds_elapsed,z,y,x
1772557298109383200,0.091383056640625,-0.0340675450861454,-0.011443383991718292,0.010425733402371407
1772557298129295000,0.111295166015625,-0.0142886433750391,-0.004700247198343277,0.03823113068938255
1772557298149208000,0.1312080078125,0.006024673581123352,-0.0006247898563742638,0.02826082333922386
1772557298169120000,0.1511201171875,0.016287555918097496,-0.00008391449227929115,0.009682216681540012
1772557298189032200,0.1710322265625,0.019296158105134964,-0.0016192584298551083,-0.002049486618489027
1772557298208944000,0.190944091796875,0.02866216003894806,-0.002655192743986845,0.001135554164648056
1772557298228856000,0.21085595703125,0.02948741801083088,-0.007173533551394939,0.024102086201310158
1772557298248768000,0.23076806640625,0.020130259916186333,0.0013565574772655964,0.04876841977238655
1772557298268680200,0.25068017578125,0.0014265014324337244,0.011103501543402672,0.03993190824985504
1772557298288593200,0.27059326171875,-0.003670045640319586,0.006651473231613636,0.016161024570465088
1772557298308505000,0.290505126953125,-0.01248419750481844,0.007057564798742533,0.001443477813154459
1772557298328417000,0.3104169921875,-0.01193359587341547,0.003200845792889595,-0.0010515711037442088
1772557298348329000,0.330328857421875,-0.014634181745350361,0.0059404256753623486,-0.001259426586329937
1772557298368241200,0.3502412109375,-0.009756265208125114,0.010287202894687653,-0.00769139314070344
1772557298388153000,0.370153076171875,-0.00706162303686142,-0.0015212316066026688,-0.01224456261843443
1772557298408066000,0.390066162109375,0.004266482777893543,0.009362032637000084,0.018047388643026352
1772557298427978000,0.40997802734375,0.01244198065251112,0.015190081670880318,0.059564609080553055
1772557298447890000,0.429889892578125,0.007445638068020344,0.037924446165561676,0.07651402056217194
1772557298467802000,0.449802001953125,0.003906591795384884,0.05238884314894676,0.0532953105866909
1772557298487714000,0.469714111328125,-0.005971521604806185,0.05303233861923218,0.03461991250514984
1772557298507626000,0.4896259765625,-0.023421520367264748,0.04061874747276306,0.023404428735375404
1772557298527539200,0.509539306640625,-0.03522602096199989,0.028503235429525375,-0.0013140131486579776
1772557298547451100,0.529451171875,-0.05042888969182968,0.01594831608235836,-0.01931428164243698
1772557298567363300,0.54936328125,-0.053239841014146805,0.006990266498178244,-0.019191784784197807
1772557298587275300,0.569275146484375,-0.06131468713283539,0.012471304275095463,-0.01459103636443615
1772557298607187000,0.58918701171875,-0.04388712719082832,0.015635157003998756,0.008975359611213207
1772557298627099100,0.60909912109375,-0.025716112926602364,0.006359549704939127,0.041607145220041275
1772557298647012400,0.629012451171875,-0.007065071724355221,-0.010481943376362324,0.040379758924245834
1772557298666924300,0.64892431640625,0.009917541407048702,-0.027243895456194878,0.038375645875930786
1772557298686836200,0.668836181640625,0.009687612764537334,-0.02568596601486206,0.03831217810511589
1772557298706748200,0.688748046875,0.002711995504796505,-0.009784496389329433,0.015020706690847874
1772557298726660400,0.708660400390625,0.01274815946817398,0.0033382251858711243,-0.01758619397878647
1772557298746572300,0.728572265625,0.03168002516031265,0.0076653859578073025,-0.03443154692649841
1772557298766485200,0.7484853515625,0.0331852026283741,-0.001723316963762045,-0.011449312791228294
1772557298786398000,0.76839794921875,0.04203104227781296,-0.0021292269229888916,0.05923463776707649
1772557298806310000,0.788309814453125,0.042907871305942535,0.00010441010817885399,0.11467666178941727
1772557298826221800,0.808221923828125,0.02589479833841324,-0.008635018952190876,0.10198643803596497
1772557298846134000,0.828134033203125,-0.004980951547622681,-0.011799458414316177,0.02992389164865017
1772557298866046000,0.8480458984375,-0.022918952628970146,0.012994896620512009,-0.04207552969455719
1772557298885958000,0.8679580078125,-0.02460048720240593,0.040952470153570175,-0.07756533473730087
1772557298905870800,0.887870849609375,-0.006585128139704466,0.09000364691019058,-0.09650108218193054
1772557298925783000,0.907782958984375,-0.0013062378857284784,0.06593163311481476,-0.07781879603862762
1772557298945695000,0.927695068359375,-0.00025284435832872987,0.03451862186193466,-0.03259798139333725
1772557298965607000,0.94760693359375,-0.0006632248405367136,0.00696310680359602,0.05366932600736618
1772557298985518800,0.967518798828125,0.009647805243730545,0.005027752369642258,0.11786145716905594
1772557299005431000,0.98743115234375,0.011770319193601608,0.009692123159766197,0.09731504321098328
1772557299025344300,1.00734423828125,0.012037699110805988,0.014485733583569527,0.021337000653147697
1772557299045256200,1.027256103515625,0.007231814321130514,0.02038891799747944,-0.049652982503175735
1772557299065168100,1.047168212890625,0.00867454707622528,0.003390427678823471,-0.08214419335126877
1772557299085079800,1.067079833984375,0.014291741885244846,0.007360423449426889,-0.03848296031355858
1772557299104992000,1.086991943359375,0.04642890766263008,0.012674843892455101,0.025618189945816994
1772557299124904000,1.106904052734375,0.0578845739364624,0.020550252869725227,0.07356483489274979
1772557299144817200,1.126817138671875,0.06631206721067429,0.009892290458083153,0.08106527477502823
1772557299164729000,1.14672900390625,0.07285548001527786,0.02035750076174736,0.06498216092586517
1772557299184641000,1.16664111328125,0.06249382346868515,0.010952445678412914,0.025851257145404816
1772557299204553200,1.18655322265625,0.05201675370335579,0.010374937206506729,0.004273485857993364
1772557299224465200,1.206465087890625,0.041928935796022415,0.022257378324866295,-0.005401761271059513
1772557299244377000,1.226377197265625,0.026964295655488968,0.019640058279037476,-0.017179159447550774
1772557299264289000,1.2462890625,0.009707489050924778,0.018125763162970543,-0.03414379805326462
1772557299284202000,1.266201904296875,-0.007068645674735308,0.013910703361034393,-0.02150578796863556
1772557299304114200,1.2861142578125,-0.011126182973384857,0.001177620142698288,0.012829585932195187
1772557299324026000,1.306026123046875,-0.0007526230765506625,0.005675991997122765,0.03266559913754463
1772557299343938000,1.32593798828125,0.003410107921808958,0.00854659266769886,0.021099986508488655
1772557299363850200,1.345850341796875,0.006732920650392771,0.008355965837836266,-0.03222508355975151
1772557299383762200,1.36576220703125,0.005808691028505564,0.012644411064684391,-0.08175382763147354
1772557299403674000,1.385674072265625,-0.0017474397318437696,0.0100779440253973,-0.08428458869457245
1772557299423587000,1.405587158203125,-0.0014014386106282473,-0.0010194266214966774,-0.06308232992887497
1772557299443499000,1.4254990234375,0.00019062671344727278,-0.00039388006553053856,-0.005087949801236391
1772557299463411200,1.4454111328125,0.001287456601858139,-0.006445634178817272,0.04105544090270996
1772557299483323100,1.4653232421875,0.0020008613355457783,-0.012715269811451435,0.04824194312095642
1772557299503235000,1.485235107421875,0.006787682883441448,-0.005379304755479097,0.029180403798818588
1772557299523147000,1.50514697265625,0.00806403812021017,0.008982839994132519,-0.010628344491124153
1772557299543059200,1.52505908203125,0.008521457202732563,-0.0009062378667294979,-0.04996844008564949
1772557299562972200,1.54497216796875,0.00541699631139636,-0.007992669008672237,-0.05010078847408295
1772557299582884000,1.564884033203125,0.005629783030599356,-0.0021291873417794704,-0.02888152003288269
1772557299602796000,1.584796142578125,0.006950472481548786,-0.00028631091117858887,-0.0013656867668032646
1772557299622708000,1.6047080078125,0.013513903133571148,0.007715470623224974,0.029109694063663483
1772557299642620200,1.6246201171875,0.01895930990576744,0.01281222328543663,0.041383981704711914
1772557299662532000,1.644531982421875,0.016617564484477043,0.005692293401807547,0.022493327036499977
1772557299682444000,1.664444091796875,0.01359479408711195,0.00633225915953517,0.008882086724042892
1772557299702357000,1.68435693359375,0.0034408324863761663,0.0011238465085625648,0.013656267896294594
1772557299722269200,1.704269287109375,0.008452999405562878,-0.007324215956032276,0.01793898083269596
1772557299742181000,1.72418115234375,0.014842470176517963,-0.005280479788780212,0.04313274100422859
1772557299762093000,1.744093017578125,0.017650606110692024,-0.0021049100905656815,0.04668068885803223
1772557299782004500,1.76400439453125,0.01599978283047676,0.004600096493959427,0.019586320966482162
1772557299801916400,1.78391650390625,0.012582272291183472,0.007541811093688011,-0.020071206614375114
1772557299821828400,1.803828369140625,0.012032470665872097,0.011186625808477402,-0.044005174189805984
1772557299841741300,1.8237412109375,0.016374727711081505,0.008945340290665627,-0.03002629242837429
1772557299861653200,1.8436533203125,0.02100391872227192,0.010839555412530899,-0.004070696886628866
1772557299881565400,1.8635654296875,0.027283035218715668,0.004795069806277752,0.013336626812815666
1772557299901477400,1.883477294921875,0.028201250359416008,0.0009063263423740864,0.018628016114234924
1772557299921389300,1.903389404296875,0.0336541123688221,-0.00038318056613206863,0.014884987846016884
1772557299941301200,1.92330126953125,0.03277450054883957,-0.009064050391316414,0.009212509728968143
1772557299961213400,1.94321337890625,0.021396607160568237,-0.012577524408698082,0.007785754278302193
1772557299981126400,1.96312646484375,0.009727967903017998,-0.016797568649053574,0.014050307683646679
1772557300001038300,1.983038330078125,0.004917611368000507,-0.015835940837860107,0.024643709883093834
1772557300020950300,2.0029501953125,0.007417592220008373,-0.008458404801785946,0.02734631486237049
1772557300040862200,2.0228623046875,0.021517066285014153,-0.018956869840621948,0.015167594887316227
1772557300060774400,2.0427744140625,0.03828990459442139,-0.0027116117998957634,-0.013817442581057549
1772557300080686300,2.062686279296875,0.039566151797771454,-0.0004170108586549759,-0.03944047540426254
1772557300100598300,2.082598388671875,0.03319701924920082,0.0006167357787489891,-0.05117366835474968
1772557300120511200,2.10251123046875,0.028636664152145386,0.001668762881308794,-0.031041529029607773
1772557300140423400,2.12242333984375,0.035122163593769073,0.00638981256633997,0.01393884140998125
1772557300160335400,2.14233544921875,0.040760211646556854,-0.006630981806665659,0.04670151695609093
1772557300180247300,2.162247314453125,0.03169739246368408,-0.00168175483122468,0.018120646476745605
1772557300200159200,2.1821591796875,0.009369689039885998,0.0022160769440233707,-0.03699246421456337
1772557300220071400,2.202071533203125,-0.01015076320618391,-0.00322159007191658,-0.07397124171257019
1772557300239983400,2.2219833984375,-0.01958010345697403,-0.00808341521769762,-0.08042320609092712
1772557300259896600,2.241896484375,-0.012755179777741432,-0.01528327539563179,-0.052884746342897415
1772557300279808300,2.261808349609375,0.00010867227683775127,-0.013789799064397812,-0.01956219971179962
1772557300299720200,2.28172021484375,0.011320398189127445,-0.015676923096179962,0.001652631675824523
1772557300319632400,2.30163232421875,0.027125375345349312,-0.015810340642929077,0.006390037015080452
1772557300339544300,2.32154443359375,0.024086009711027145,-0.0024431184865534306,-0.00693766912445426
1772557300359456300,2.341456298828125,0.022497769445180893,0.005944740027189255,0.0008681559702381492
1772557300379368200,2.3613681640625,0.013408232480287552,0.016081281006336212,0.043114230036735535
1772557300399281400,2.381281494140625,0.021882550790905952,0.011456979438662529,0.06993904709815979
1772557300419193600,2.401193603515625,0.023807525634765625,-0.003581362310796976,0.0644170269370079
1772557300439105500,2.42110546875,0.012036297470331192,-0.00996471382677555,0.022926008328795433
1772557300459017500,2.441017578125,-0.009834323078393936,-0.015246007591485977,-0.03234546631574631
1772557300478929400,2.460929443359375,-0.028942447155714035,-0.007959311828017235,-0.056739985942840576
1772557300498841300,2.48084130859375,-0.05382288992404938,-0.0000752769410610199,-0.05062044411897659
1772557300518753300,2.500753173828125,-0.06007127836346626,0.004101366735994816,-0.040385209023952484
1772557300538665200,2.520665283203125,-0.06125586852431297,0.005716814659535885,-0.04347819834947586
1772557300558578400,2.540578369140625,-0.051188480108976364,-0.0028745802119374275,-0.041933417320251465
1772557300578490400,2.560490478515625,-0.032978467643260956,-0.005876719951629639,-0.01639043167233467
1772557300598402600,2.580402587890625,-0.021267682313919067,-0.013959446921944618,-0.0040646884590387344
1772557300618314500,2.600314453125,-0.018584953621029854,-0.009506387636065483,-0.008184727281332016
1772557300638226400,2.620226318359375,-0.022756090387701988,-0.007244503125548363,-0.019105972722172737
1772557300658138600,2.640138671875,-0.030183015391230583,-0.003921394236385822,-0.015624339692294598
1772557300678050600,2.660050537109375,-0.025416182354092598,-0.0013349358923733234,-0.004911994561553001
1772557300697963500,2.679963623046875,-0.019970817491412163,-0.015456346794962883,-0.007863310165703297
1772557300717875500,2.69987548828125,-0.011699924245476723,-0.02049964666366577,-0.022677963599562645
1772557300737787400,2.719787353515625,-0.009794753044843674,-0.009987026453018188,-0.030403900891542435
1772557300757699600,2.739699462890625,-0.01569453999400139,-0.0009611118584871292,-0.05279897525906563
1772557300777611500,2.759611572265625,-0.017291005700826645,0.0132455388084054,-0.05691161006689072
1772557300797523500,2.7795234375,-0.008582565002143383,-0.0031733198557049036,-0.04197436198592186
1772557300817435400,2.799435302734375,-0.006524295080453157,-0.0011989236809313297,-0.024431608617305756
1772557300837347600,2.81934765625,-0.0067345863208174706,-0.0023240922018885612,-0.01170214731246233
1772557300857260500,2.839260498046875,0.003943289164453745,-0.000695269089192152,0.006648263428360224
1772557300877172500,2.85917236328125,0.02394874207675457,-0.0022764471359550953,0.021778056398034096
1772557300897084400,2.87908447265625,0.04566523805260658,-0.008044029586017132,0.019781211391091347
1772557300916996400,2.898996337890625,0.05943344905972481,-0.011067748069763184,0.019046610221266747
1772557300936908500,2.918908447265625,0.07331745326519012,-0.005996067076921463,0.032342102378606796
1772557300956820500,2.938820556640625,0.07135356217622757,-0.010641410946846008,0.05327045917510986
1772557300976732400,2.958732421875,0.05715033411979675,-0.013046452775597572,0.056554827839136124
1772557300996645400,2.978645263671875,0.05854670703411102,-0.02210128866136074,0.051796454936265945
1772557301016557600,2.9985576171875,0.05703940615057945,-0.01836906000971794,0.04704774543642998
1772557301036469500,3.018469482421875,0.04549888148903847,-0.015381766483187675,0.035877641290426254
1772557301056381400,3.03838134765625,0.039653755724430084,-0.0011602453887462616,-0.013511736877262592
1772557301076293400,3.05829345703125,0.020978746935725212,0.004286198411136866,-0.08969345688819885
1772557301096205600,3.07820556640625,-0.017160173505544662,-0.011191049590706825,-0.1191222295165062
1772557301116117500,3.098117431640625,-0.047962892800569534,-0.005972019862383604,-0.1001901850104332
1772557301136029400,3.118029541015625,-0.05541076511144638,0.01673058420419693,-0.07918878644704819
1772557301155942400,3.1379423828125,-0.04542016610503197,0.026870060712099075,-0.045787960290908813
1772557301175854300,3.157854248046875,-0.04731057584285736,0.015340156853199005,-0.007989268749952316
1772557301195766500,3.1777666015625,-0.02567393332719803,-0.008003761060535908,0.021472254768013954
1772557301215678500,3.197678466796875,-0.013866584748029709,-0.0077020213939249516,0.03551532328128815
1772557301235590400,3.21759033203125,-0.010350847616791725,-0.0015367879532277584,0.012703833170235157
1772557301255502300,3.23750244140625,-0.01367602776736021,-0.003351735882461071,-0.013995375484228134
1772557301275414500,3.25741455078125,-0.013511265628039837,-0.0023576482199132442,-0.04024670645594597
1772557301295326500,3.277326416015625,-0.01463681273162365,-0.002940818201750517,-0.0478065088391304
1772557301315239400,3.297239501953125,-0.014563298784196377,-0.0008106096647679806,-0.042190905660390854
1772557301335151400,3.3171513671875,-0.02058950997889042,0.0036379890516400337,-0.0259022768586874
1772557301355063600,3.3370634765625,-0.01991800218820572,0.014858938753604889,0.0031446919310837984
1772557301374975500,3.3569755859375,-0.01816079206764698,0.018680863082408905,0.02935422770678997
1772557301394887400,3.376887451171875,-0.011337130330502987,0.014060240238904953,0.040763888508081436
1772557301414799400,3.39679931640625,-0.004541526548564434,-0.00021321279928088188,0.014184467494487762
1772557301434711600,3.416711669921875,-0.0017822976224124432,-0.006341991014778614,-0.017531944438815117
1772557301454624500,3.43662451171875,-0.006691763177514076,0.00310748303309083,-0.024774115532636642
1772557301474536400,3.456536376953125,0.0001677675754763186,0.010197056457400322,-0.015932632610201836
1772557301494448400,3.476448486328125,0.011553021147847176,0.006650818977504969,-0.01995965465903282
1772557301514360300,3.4963603515625,0.018194731324911118,0.022006280720233917,-0.009430470876395702
1772557301534272500,3.5162724609375,0.02675945870578289,0.021762335672974586,0.010668405331671238
1772557301554184400,3.536184326171875,0.017175570130348206,0.0055317506194114685,0.009750929661095142
1772557301574096400,3.556096435546875,0.018016820773482323,-0.012866693548858166,-0.00728961918503046
1772557301594008300,3.57600830078125,0.017216838896274567,0.000346627552062273,-0.019132182002067566
1772557301613920500,3.59592041015625,0.012428862042725086,0.018538858741521835,-0.005285398568958044
1772557301633833500,3.61583349609375,0.006039744708687067,0.010947562754154205,0.003452461678534746
1772557301653745400,3.635745361328125,-0.006839332170784473,0.003930882550776005,0.015855617821216583
1772557301673657300,3.6556572265625,-0.00908502098172903,0.001697060652077198,0.016959352418780327
1772557301693569500,3.675569580078125,-0.01347159594297409,-0.0027360287494957447,0.011474747210741043
1772557301713481500,3.6954814453125,-0.009931158274412155,0.00015780935063958168,0.0019840230233967304
1772557301733393400,3.715393310546875,-0.008101890794932842,0.004454800393432379,-0.006166618317365646
1772557301753305300,3.735305419921875,-0.0019492313731461763,0.005900634452700615,0.0011833937605842948
1772557301773217500,3.755217529296875,0.00546008488163352,0.0013164696283638477,0.013732142746448517
1772557301793130800,3.775130859375,0.01803647167980671,-0.012195331044495106,0.03898489847779274
1772557301813042700,3.795042724609375,0.027807749807834625,-0.011226195842027664,0.05206247791647911
1772557301832954600,3.81495458984375,0.02240939624607563,-0.009069554507732391,0.03408920019865036
1772557301852866600,3.834866455078125,0.007860589772462845,-0.007181377150118351,-0.007396411616355181
1772557301872778800,3.85477880859375,-0.0020275283604860306,0.0020004352554678917,-0.017893360927700996
1772557301892690700,3.874690673828125,-0.0059778266586363316,0.006662516389042139,-0.0063346922397613525
1772557301912602600,3.8946025390625,-0.00977051816880703,-0.006423983257263899,-0.003952053841203451
1772557301932514600,3.9145146484375,-0.014740760438144207,-0.013641124591231346,0.002217682544142008
1772557301952427500,3.934427490234375,-0.01660841889679432,-0.008925974369049072,0.00610722042620182
1772557301972339700,3.954339599609375,-0.01886787638068199,0.01593964546918869,0.005632929038256407
1772557301992251600,3.974251708984375,-0.014378570020198822,0.008813584223389626,-0.00010832227417267859
1772557302012163600,3.99416357421875,-0.004784814082086086,-0.0012481296434998512,-0.002171996980905533
1772557302032075500,4.014075439453125,0.004142383579164743,-0.004149352665990591,-0.0005314985755831003
1772557302051987700,4.03398779296875,0.001062422408722341,0.004313349723815918,0.005759162828326225
1772557302071899600,4.053899658203125,0.00998582411557436,0.03225023299455643,0.0021320944651961327
1772557302091811600,4.0738115234375,0.004811860620975494,0.013013925403356552,0.01985601894557476
1772557302111724500,4.093724609375,0.0007442896021530032,0.01664009690284729,0.02780967764556408
1772557302131636700,4.11363671875,0.00383462174795568,0.0024936525151133537,0.02179013565182686
1772557302151548700,4.133548583984375,0.003280992154031992,-0.010482337325811386,0.003697463544085622
1772557302171460600,4.153460693359375,-0.002903833519667387,-0.005881177727133036,-0.011481938883662224
1772557302191372500,4.17337255859375,-0.005885492544621229,-0.0064675831235945225,-0.014459894970059395
1772557302211284700,4.19328466796875,-0.00607783067971468,-0.008585082367062569,-0.013949137181043625
1772557302231196700,4.21319677734375,-0.007240598555654287,-0.004585593938827515,-0.0023124373983591795
1772557302251108600,4.233108642578125,-0.0054836273193359375,0.0067346952855587006,0.0005984894232824445
1772557302271021600,4.253021484375,-0.0037274397909641266,0.006040160544216633,0.006378430873155594
1772557302290933500,4.27293359375,0.0001592348562553525,0.006172272842377424,0.02816152758896351
1772557302310845700,4.292845703125,0.0027997433207929134,0.003721873741596937,0.04213327914476395
1772557302330757600,4.312757568359375,0.004180284217000008,-0.002100057899951935,0.029256584122776985
1772557302350669600,4.332669677734375,-0.0014624891337007284,-0.0021466314792633057,0.0011942209675908089
1772557302370582500,4.35258251953125,-0.005377643741667271,-0.004045993555337191,-0.008410781621932983
1772557302390494500,4.372494384765625,0.0015819789841771126,0.002863286528736353,0.0060083805583417416
1772557302410406700,4.39240673828125,-0.00032392016146332026,0.0020962851122021675,0.007058069575577974
1772557302430318600,4.412318603515625,-0.004619833547621965,-0.003447037423029542,-0.0029833968728780746
1772557302450230500,4.43223046875,-0.00877330545336008,0.00415940722450614,-0.010971209965646267
1772557302470142700,4.452142822265625,-0.006453227251768112,0.008341401815414429,-0.01147651206701994
1772557302490054700,4.4720546875,-0.009611020796000957,0.004900338593870401,-0.005784895736724138
1772557302509966600,4.491966552734375,-0.0055990517139434814,0.001470994669944048,-0.0020930476021021605
1772557302529879600,4.511879638671875,-0.006608865223824978,-0.004214834421873093,-0.008307496085762978
1772557302549791500,4.53179150390625,0.0015449769562110305,-0.0014763092622160912,-0.02276735007762909
1772557302569703700,4.55170361328125,0.0072409301064908504,0.004045463632792234,-0.036630693823099136
1772557302589615600,4.57161572265625,0.01180746778845787,0.001073933206498623,-0.02842204086482525
1772557302609527600,4.591527587890625,0.017307721078395844,-0.00609585689380765,-0.013104015029966831
1772557302629439500,4.611439453125,0.020084265619516373,0.000918674748390913,-0.002478103619068861
1772557302649351700,4.6313515625,0.006862286012619734,-0.0019807168282568455,0.022358363494277
1772557302669263600,4.651263671875,-0.0041971225291490555,-0.00021106190979480743,0.07183768600225449
1772557302689176600,4.671176513671875,-0.013073339127004147,0.009137981571257114,0.10195358842611313
1772557302709088500,4.691088623046875,-0.01723378524184227,0.006210614461451769,0.08594103157520294
1772557302729000400,4.71100048828125,-0.020626230165362358,0.0050167543813586235,0.026925500482320786
1772557302748912600,4.73091259765625,-0.02681758813560009,-0.002817728091031313,-0.030312269926071167
1772557302768824600,4.750824462890625,-0.022733239457011223,-0.004187670536339283,-0.05332397297024727
1772557302788736500,4.770736572265625,-0.022646229714155197,-0.005138728767633438,-0.058674558997154236
1772557302808648700,4.790648681640625,-0.02009795792400837,-0.0008906847797334194,-0.04624626785516739
1772557302828560600,4.810560546875,-0.012951449491083622,0.0015615620650351048,-0.01651775650680065
1772557302848473600,4.8304736328125,-0.015467870980501175,0.001909370068460703,0.014853216707706451
1772557302868385500,4.850385498046875,-0.01435772329568863,0.007419196423143148,0.009827161207795143
1772557302888297500,4.87029736328125,-0.016040267422795296,0.020952578634023666,-0.004796210676431656
1772557302908209700,4.890209716796875,-0.0031369596254080534,0.0028877961449325085,-0.018066687509417534
1772557302928121600,4.91012158203125,-0.0025446400977671146,0.01692696288228035,-0.045147594064474106
1772557302948033500,4.930033447265625,0.005164720118045807,0.0213768370449543,-0.05526915565133095
1772557302967945500,4.949945556640625,0.006262218113988638,0.023365367203950882,-0.044017236679792404
1772557302987857700,4.969857666015625,0.008425703272223473,0.024436786770820618,-0.018805190920829773
1772557303007769600,4.98976953125,0.011747505515813828,0.012393437325954437,-0.013335278257727623
1772557303027682600,5.0096826171875,0.007353181019425392,0.012055250816047192,-0.03322630748152733
1772557303047594500,5.029594482421875,0.0027148365043103695,0.00735875777900219,-0.044362761080265045
1772557303067506400,5.04950634765625,0.009424122050404549,0.0036263149231672287,-0.03745663911104202
1772557303087418600,5.069418701171875,0.016619492322206497,-0.0006355461664497852,-0.015919344499707222
1772557303107330600,5.08933056640625,0.016279224306344986,-0.015602519735693932,0.006145836319774389
1772557303127242500,5.109242431640625,0.01137090940028429,-0.014447737485170364,0.024375826120376587
1772557303147154700,5.12915478515625,0.010115557350218296,-0.006244244519621134,0.045326024293899536
1772557303167066600,5.149066650390625,0.010398807004094124,0.002806012984365225,0.03998863324522972
1772557303186978600,5.168978515625,0.013131017796695232,0.000607883557677269,0.020154770463705063
1772557303206891500,5.1888916015625,0.014088324271142483,-0.005279848352074623,0.0030329590663313866
1772557303226803500,5.208803466796875,0.017540963366627693,-0.015028043650090694,-0.016743866726756096
1772557303246715600,5.228715576171875,0.00843241810798645,-0.016791854053735733,-0.020824361592531204
1772557303266627600,5.248627685546875,0.00020683815819211304,-0.008669491857290268,-0.02961558662354946
1772557303286539500,5.26853955078125,-0.004006789531558752,0.0007855012081563473,-0.03375248610973358
1772557303306451500,5.288451416015625,-0.01480912882834673,0.009268227964639664,-0.025199532508850098
1772557303326363600,5.30836376953125,-0.01852913200855255,0.0016875257715582848,-0.008556989021599293
1772557303346275600,5.328275634765625,-0.012996764853596687,-0.0035333274863660336,0.017454279586672783
1772557303366187500,5.3481875,-0.008383296430110931,-0.014387264847755432,0.04138307645916939
1772557303386100500,5.3681005859375,-0.0021760333329439163,-0.00529714347794652,0.03817345201969147
1772557303406012400,5.388012451171875,-0.0024612664710730314,-0.0015209969133138657,0.0038524328265339136
1772557303425924600,5.407924560546875,-0.013421721756458282,0.005341649055480957,-0.03690793737769127
1772557303445836500,5.42783642578125,-0.020303089171648026,0.00025956612080335617,-0.05316046252846718
1772557303465748500,5.44774853515625,-0.014667298644781113,-0.012126848101615906,-0.03592122718691826
1772557303485660700,5.46766064453125,-0.008433562703430653,-0.013371032662689686,-0.006567570846527815
1772557303505572600,5.487572509765625,-0.004000664222985506,-0.008330765180289745,0.021281205117702484
1772557303525484500,5.507484619140625,-0.009588434360921383,-0.0008898507803678513,0.019790928810834885
1772557303545396500,5.527396484375,-0.007061835378408432,0.003356312867254019,-0.00819246657192707
1772557303565309400,5.547309326171875,-0.008034995757043362,0.007046658080071211,-0.020684335380792618
1772557303585221600,5.5672216796875,-0.008798166178166866,0.0050148749724030495,-0.02757990173995495
1772557303605133600,5.587133544921875,-0.009446305222809315,0.005408799275755882,-0.019972288981080055
1772557303625045500,5.60704541015625,-0.011707678437232971,-0.0015598866157233715,-0.021289048716425896
1772557303644957400,5.62695751953125,-0.013646941632032394,-0.001140759326517582,-0.011485309340059757
1772557303664869600,5.64686962890625,-0.010944067500531673,-0.005999650340527296,-0.003259887918829918
1772557303684781600,5.666781494140625,-0.015258020721375942,-0.005408413242548704,-0.005872632842510939
1772557303704693500,5.686693603515625,-0.020371872931718826,0.0010723196901381016,-0.007996742613613605
1772557303724605400,5.70660546875,-0.028750861063599586,0.010481305420398712,-0.014204763807356358
1772557303744518400,5.726518310546875,-0.02283286862075329,-0.0034542083740234375,-0.004221729934215546
1772557303764430600,5.7464306640625,-0.014766743406653404,-0.010881784372031689,0.0006105388747528195
1772557303784343000,5.766343017578125,-0.011702018789947033,-0.010777916759252548,-0.0008103033760562539
1772557303804255000,5.7862548828125,-0.008449525572359562,-0.002755117602646351,-0.013426817953586578
1772557303824167000,5.8061669921875,-0.004109080880880356,-0.009093200787901878,-0.02875751629471779
1772557303844079000,5.8260791015625,-0.004922168795019388,-0.003489350900053978,-0.02601637877523899
1772557303863991000,5.845990966796875,0.0036333028692752123,0.007748358882963657,-0.004170634318143129
1772557303883903000,5.865903076171875,0.017365070059895515,0.008122826926410198,0.019372187554836273
1772557303903815000,5.88581494140625,0.016555210575461388,-0.005838845856487751,0.03065500035881996
1772557303923727000,5.90572705078125,0.014634904451668262,-0.00022222381085157394,0.01791371963918209
1772557303943640000,5.92564013671875,0.007920251227915287,0.00468174833804369,-0.0024717669002711773
1772557303963552000,5.945552001953125,0.00011913682101294398,0.004074806813150644,-0.015170692466199398
1772557303983464000,5.9654638671875,-0.001268311869353056,-0.00107945641502738,-0.008611023426055908
1772557304003376000,5.985376220703125,-0.001460083993151784,0.00509617431089282,-0.0004165317222941667
1772557304023288000,6.0052880859375,0.002587695838883519,0.00822911411523819,-0.004172874614596367
1772557304043200000,6.025199951171875,0.005250449292361736,0.007689279038459063,-0.007583979982882738
1772557304063112000,6.04511181640625,0.012229446321725845,-0.004060046747326851,-0.019269488751888275
1772557304083024100,6.065024169921875,0.012029283680021763,-0.002369506750255823,-0.014856751076877117
1772557304102936000,6.08493603515625,0.007442397065460682,-0.00023310771211981773,-0.0009767599403858185
1772557304122849000,6.10484912109375,-0.0009352919878438115,0.0032798610627651215,0.006760347634553909
1772557304142761000,6.124760986328125,-0.004342132713645697,0.008442409336566925,0.009278761222958565
1772557304162673000,6.1446728515625,-0.005139973945915699,0.008474896661937237,0.0033463493455201387
1772557304182585000,6.164585205078125,-0.014965863898396492,0.0028627817519009113,-0.014180032536387444
1772557304202497000,6.1844970703125,-0.008509412407875061,-0.004635264165699482,-0.017908936366438866
1772557304222409000,6.204408935546875,0.00024577087606303394,0.009921836666762829,-0.012240883894264698
1772557304242321000,6.22432080078125,0.012613000348210335,-0.0016844896599650383,-0.007513993885368109
1772557304262233000,6.244233154296875,0.010573949664831161,-0.010878313332796097,0.0001742214080877602
1772557304282145000,6.26414501953125,-0.0013790824450552464,-0.010857496410608292,-0.0003997079038526863
1772557304302057000,6.284056884765625,-0.02107086032629013,-0.0033311513252556324,-0.014859423972666264
1772557304321970000,6.303969970703125,-0.033588558435440063,0.004842626396566629,-0.007765341084450483
1772557304341882000,6.323882080078125,-0.04347015172243118,0.011595306918025017,-0.011284342035651207
1772557304361794000,6.3437939453125,-0.029299519956111908,0.005027472507208586,-0.01675165444612503
1772557304381706000,6.3637060546875,-0.00476822117343545,-0.0017529469914734364,-0.008748718537390232
1772557304401618000,6.383617919921875,0.013226617127656937,-0.009569335728883743,0.018635639920830727
1772557304421530000,6.403530029296875,0.017917117103934288,-0.0023425710387527943,0.027265742421150208
1772557304441442000,6.423442138671875,0.009169923141598701,-0.012433284893631935,-0.006613174919039011
1772557304461354000,6.44335400390625,-0.013612412847578526,0.009184908121824265,-0.02124408632516861
1772557304481266000,6.463265869140625,-0.026205802336335182,0.011395581997931004,-0.015151388011872768
1772557304501179000,6.483178955078125,-0.03134030103683472,0.00430096173658967,-0.009772575460374355
1772557304521091000,6.503091064453125,-0.031003205105662346,-0.00010605622082948685,-0.010118023492395878
1772557304541003000,6.5230029296875,-0.02569042332470417,-0.0020413785241544247,-0.007127247750759125
1772557304560915000,6.5429150390625,-0.021065453067421913,-0.009646313264966011,0.003919415641576052
1772557304580827000,6.562826904296875,-0.01820322871208191,-0.0061381421983242035,0.0031807925552129745
1772557304600739000,6.582739013671875,-0.015721021220088005,0.0028068944811820984,-0.009637139737606049
1772557304620651000,6.602651123046875,-0.010870080441236496,0.002384832128882408,-0.00183174479752779
1772557304640563000,6.62256298828125,-0.0073513793759047985,0.001260385848581791,0.021463394165039062
1772557304660475100,6.64247509765625,-0.005099926143884659,-0.0028728176839649677,0.02514520473778248
1772557304680387000,6.662386962890625,-0.0015925432089716196,0.005212539341300726,0.016179673373699188
1772557304700299000,6.682299072265625,-0.003166845068335533,0.008167882449924946,0.004984395578503609
1772557304720212000,6.7022119140625,0.0008970628259703517,0.005747028160840273,0.0015739239752292633
1772557304740124000,6.7221240234375,0.00900753028690815,0.009231283329427242,-0.010194025002419949
1772557304760036000,6.7420361328125,0.0199055764824152,0.01223318837583065,-0.004391657654196024
1772557304779947500,6.761947509765625,0.028383223339915276,0.008854919113218784,-0.007265144493430853
1772557304799859500,6.781859375,0.02860669605433941,0.005873021669685841,0.008002207614481449
1772557304819771600,6.801771728515625,0.024948785081505775,0.011120762676000595,0.020309437066316605
1772557304839683600,6.82168359375,0.018361065536737442,0.004932386334985495,0.019841646775603294
1772557304859595500,6.841595458984375,0.006553409155458212,0.0018982463516294956,0.002954809693619609
1772557304879507500,6.861507568359375,-0.0016677274834364653,-0.00002535758540034294,0.003634760621935129
1772557304899419600,6.881419677734375,-0.0098080113530159,0.009155918844044209,0.008213698863983154
1772557304919332600,6.90133251953125,-0.010698797181248665,0.01108537521213293,0.007362598553299904
1772557304939244500,6.92124462890625,-0.012784069404006004,0.007844019681215286,-0.006636031903326511
1772557304959156500,6.941156494140625,-0.009517660364508629,0.0029046516865491867,-0.017823658883571625
1772557304979068400,6.961068359375,0.0021414265502244234,-0.0002990872599184513,-0.004205337725579739
1772557304998980600,6.980980712890625,0.01232927292585373,-0.00024186959490180016,0.01699845679104328
1772557305018892500,7.000892578125,0.015636321157217026,-0.005719429813325405,0.02413562871515751
1772557305038804500,7.020804443359375,0.014101198874413967,-0.004474975168704987,0.013711188919842243
1772557305058716400,7.04071630859375,0.006527535151690245,-0.0023566819727420807,0.0023134746588766575
1772557305078628600,7.060628662109375,0.0009142071357928216,0.003471639007329941,0.007180759683251381
1772557305098540500,7.08054052734375,-0.0042952438816428185,0.00019169319421052933,0.008136788383126259
1772557305118452500,7.100452392578125,-0.011089974083006382,-0.0054850829765200615,0.0011252547847107053
1772557305138365400,7.120365478515625,-0.01836739294230938,0.0009784386493265629,0.007813682779669762
1772557305158277600,7.140277587890625,-0.015150721184909344,-0.0007185610011219978,0.0017737805610522628
1772557305178189600,7.160189453125,-0.01659855619072914,0.010365504771471024,-0.004556948319077492
1772557305198101500,7.1801015625,-0.014683874323964119,0.0016532973386347294,-0.016084376722574234
1772557305218013400,7.200013427734375,-0.004100715275853872,-0.003981976769864559,0.01734660565853119
1772557305237925600,7.219925537109375,0.008792038075625896,-0.0060014622285962105,0.008183338679373264
1772557305257837600,7.239837646484375,0.014273546636104584,-0.02561941184103489,0.004049019888043404
1772557305277749500,7.25974951171875,0.023129841312766075,-0.004191300831735134,0.05970551446080208
1772557305297661400,7.279661376953125,0.014395713806152344,0.01121111586689949,0.0346648208796978
1772557305317573600,7.29957373046875,-0.004171270877122879,0.009190838783979416,-0.008531340397894382
1772557305337486600,7.319486572265625,-0.016279682517051697,-0.003452245844528079,-0.029090769588947296
