time,seconds_elapsed,z,y,x
1772557298109383200,0.091383056640625,-0.04400923759639263,-0.06911269919276238,0.07240085401795804
1772557298129295000,0.111295166015625,-0.06693652419745921,-0.05934800529722124,0.08885763856382109
1772557298149208000,0.1312080078125,0.11612871738970279,-0.018649718879722058,0.06713028407073579
1772557298169120000,0.1511201171875,0.16072364591956137,-0.08756017349865287,0.023394511387171222
1772557298189032200,0.1710322265625,0.1529097572982311,-0.07827065936680883,-0.010602551225479692
1772557298208944000,0.190944091796875,0.039669747087359424,-0.02153480932936072,-0.048671831713104616
1772557298228856000,0.21085595703125,-0.07638882767558097,0.015058051063306628,-0.06414595276401377
1772557298248768000,0.23076806640625,-0.07923194214701652,-0.019471154797822236,-0.15733307189950718
1772557298268680200,0.25068017578125,0.06970657343268394,-0.02441405456010252,-0.16401161808166653
1772557298288593200,0.27059326171875,0.2377940261185169,-0.02795055812317878,-0.17227010866533965
1772557298308505000,0.290505126953125,0.21886428472101688,-0.000995331180281937,-0.1356432912041433
1772557298328417000,0.3104169921875,0.1411819101035595,-0.04926251848209649,-0.07323161488682962
1772557298348329000,0.330328857421875,0.11812544416487217,-0.057067347014136606,-0.05879279170040972
1772557298368241200,0.3502412109375,0.08612637783586978,-0.05820873560160398,-0.010572685810178518
1772557298388153000,0.370153076171875,0.0597176788598299,-0.038767975942045445,-0.03286441445406526
1772557298408066000,0.390066162109375,-0.13244038524329663,-0.08156268664952367,-0.05281419221484102
1772557298427978000,0.40997802734375,-0.2245142733067274,-0.049125265435874456,-0.05383619220633991
1772557298447890000,0.429889892578125,-0.10529577320814132,-0.018210998668894172,-0.08363690824084914
1772557298467802000,0.449802001953125,0.14212591295540333,0.0012864596139639615,-0.1512334124506917
1772557298487714000,0.469714111328125,0.16814181322157382,-0.021912081676535307,-0.1979819844836369
1772557298507626000,0.4896259765625,0.088138302180171,-0.06319668008200824,-0.24016671006660906
1772557298527539200,0.509539306640625,0.1826514000892639,-0.08872074171062558,-0.15625972531326116
1772557298547451100,0.529451171875,0.1775976238310337,-0.04182619446888566,-0.14023531343583018
1772557298567363300,0.54936328125,0.11280220331549644,0.025698797141015528,-0.03422454209243878
1772557298587275300,0.569275146484375,0.051125207081437106,-0.06458338520005345,-0.09859587371069937
1772557298607187000,0.58918701171875,0.007291910573840141,-0.07771872457247227,0.07769185483185574
1772557298627099100,0.60909912109375,-0.0381722020059824,-0.04057739998418838,0.07619076608652249
1772557298647012400,0.629012451171875,0.027616905722022054,-0.09245127000845968,0.0947561128847301
1772557298666924300,0.64892431640625,0.06205050572156906,-0.0426824825046584,0.07393962615886703
1772557298686836200,0.668836181640625,0.10652151561081409,0.00938873672261834,0.04608081970605999
1772557298706748200,0.688748046875,0.15030863488912583,-0.031296324887126685,0.018142719205655158
1772557298726660400,0.708660400390625,0.20659692382216452,0.0016054259026423096,0.04103881608401425
1772557298746572300,0.728572265625,0.15087094494700432,0.0514930905457586,0.022063262783410028
1772557298766485200,0.7484853515625,-0.032660745108127595,0.004797646072693169,-0.04841987537918612
1772557298786398000,0.76839794921875,-0.24233751476705073,-0.004749349951557815,0.023993491060473025
1772557298806310000,0.788309814453125,-0.27701369135081766,-0.0022024054151028394,0.04353011230994016
1772557298826221800,0.808221923828125,0.1339613112002611,0.05945219632405788,-0.026787259098002687
1772557298846134000,0.828134033203125,0.5781839188367128,0.0247615893561393,-0.12980146984076127
1772557298866046000,0.8480458984375,0.5981704758107662,-0.04914605249557644,-0.08791182734738104
1772557298885958000,0.8679580078125,0.21919395506680012,-0.09193539290819316,-0.04126118099726736
1772557298905870800,0.887870849609375,0.04640168569087982,-0.12761238056495786,0.06764799693506211
1772557298925783000,0.907782958984375,-0.051796822732686994,-0.061763980397768314,0.15787271346785128
1772557298945695000,0.927695068359375,-0.20884090335667133,0.07798241700995713,0.022772059506736695
1772557298965607000,0.94760693359375,-0.433716411191225,0.12898940453920513,0.0960691317120567
1772557298985518800,0.967518798828125,-0.3909112886875868,0.03914557708278298,0.1399872752252035
1772557299005431000,0.98743115234375,0.21099135938882826,0.06919296135473996,0.10321498487871139
1772557299025344300,1.00734423828125,0.535081274691224,-0.06984148839134723,0.008623287041764707
1772557299045256200,1.027256103515625,0.5005997438967228,-0.16331245683636517,0.019380261643975973
1772557299065168100,1.047168212890625,0.26722937943935393,-0.049857379102706906,0.06819096297165378
1772557299085079800,1.067079833984375,-0.21759353413283825,-0.07020962758399546,0.07955512795308604
1772557299104992000,1.086991943359375,-0.3211100227087736,-0.02014605838470161,0.2869061032792553
1772557299124904000,1.106904052734375,-0.23294833965301512,-0.027164010855369267,0.0803740248542279
1772557299144817200,1.126817138671875,0.012070377022027968,0.033832163507677614,0.009946407137997448
1772557299164729000,1.14672900390625,0.19425299055576323,0.02225252914465964,-0.06023034108970314
1772557299184641000,1.16664111328125,0.27153730576634405,0.012611498161405324,-0.14580575224561615
1772557299204553200,1.18655322265625,0.19787293461859226,-0.05236150741074234,-0.12625698390062898
1772557299224465200,1.206465087890625,0.13659458231329918,-0.07379373314846306,-0.128488907671161
1772557299244377000,1.226377197265625,0.1481096635401249,-0.10365081901270895,-0.1740357666309923
1772557299264289000,1.2462890625,0.2203138990074396,-0.11276369793601333,-0.11455065441802144
1772557299284202000,1.266201904296875,-0.02200958723425865,-0.140631034755148,-0.10012012413591145
1772557299304114200,1.2861142578125,-0.14050328018963337,-0.10471998261418193,-0.03293448401559144
1772557299324026000,1.306026123046875,-0.05576397279798984,-0.030145474351570008,0.03671259604850784
1772557299343938000,1.32593798828125,0.08512216922938823,-0.013667911879159509,-0.001148293252289295
1772557299363850200,1.345850341796875,0.381224007409811,0.03728120798300952,-0.010646043307334183
1772557299383762200,1.36576220703125,0.3612807050555944,-0.032134200483374294,-0.06749890732057393
1772557299403674000,1.385674072265625,0.08332067276537418,-0.0939662776812911,-0.08058483632700518
1772557299423587000,1.405587158203125,-0.08370587269067764,-0.12154749103542417,0.023422120913304388
1772557299443499000,1.4254990234375,-0.23000059576332568,-0.12076116296332329,0.023156199986115098
1772557299463411200,1.4454111328125,-0.19936404995918272,-0.13490586204137653,0.03331546442350373
1772557299483323100,1.4653232421875,0.05251870726644992,-0.0995965021206066,-0.021054843792691826
1772557299503235000,1.485235107421875,0.18919746073186397,-0.12997677160874008,0.02240936367418617
1772557299523147000,1.50514697265625,0.28378128578960893,-0.10952646958045661,-0.03181713389083743
1772557299543059200,1.52505908203125,0.2820937710940838,-0.1314107134019956,-0.028066439587809144
1772557299562972200,1.54497216796875,0.112916769605875,-0.1364529453529045,-0.008841642500180751
1772557299582884000,1.564884033203125,-0.00028349311649799344,-0.10032876191791146,0.009562467588018625
1772557299602796000,1.584796142578125,-0.03515606905519962,-0.10126589663755148,0.026528379832953215
1772557299622708000,1.6047080078125,-0.14245324521362782,-0.16251593616381288,0.032465332133881745
1772557299642620200,1.6246201171875,-0.0570119270324707,-0.13140033813845364,0.030845402781851588
1772557299662532000,1.644531982421875,0.1999672765493393,-0.1192895560408011,0.03206124484501779
1772557299682444000,1.664444091796875,0.1723907028377056,-0.10832768824994564,0.03188853689292446
1772557299702357000,1.68435693359375,0.07151449963748455,-0.1011255383187905,-0.008555135442689061
1772557299722269200,1.704269287109375,0.05715396585166454,-0.1120255563871935,0.06358029083842412
1772557299742181000,1.72418115234375,-0.05507891314327717,-0.1063535021001473,0.06453497948106378
1772557299762093000,1.744093017578125,-0.0024584990680217743,-0.14681604353301225,0.03884670373406261
1772557299782004500,1.76400439453125,0.19736732318401334,-0.13060356173757462,0.004744692042749375
1772557299801916400,1.78391650390625,0.27946692972183224,-0.11497256962452083,-0.039481878098752345
1772557299821828400,1.803828369140625,0.24459727639257905,-0.07982753341998905,-0.0035957229370251298
1772557299841741300,1.8237412109375,0.060413259908556935,-0.09408807743005454,0.027132209211308506
1772557299861653200,1.8436533203125,-0.039303836384415626,-0.05703709800634533,0.042252822383120656
1772557299881565400,1.8635654296875,-0.04992109198868274,-0.04580481577627361,0.06938307709936052
1772557299901477400,1.883477294921875,0.030512042641639706,-0.0737075161697343,0.05531166245322674
1772557299921389300,1.903389404296875,0.1096270804107189,-0.094395645541884,0.0005453041241504251
1772557299941301200,1.92330126953125,0.06957388696372509,-0.06925082902181894,0.007884652302600444
1772557299961213400,1.94321337890625,0.06788754131197929,-0.12117116853632032,-0.03146490465337411
1772557299981126400,1.96312646484375,0.0868441707164049,-0.08045600404925644,-0.03562008810406551
1772557300001038300,1.983038330078125,0.0688940880060196,-0.041925490124896166,-0.009834544261358678
1772557300020950300,2.0029501953125,0.0467816249191761,-0.013164784662611782,0.03577977217780426
1772557300040862200,2.0228623046875,0.08896130900084973,-0.044439189978875214,0.05690786386979744
1772557300060774400,2.0427744140625,0.15675532681047916,-0.06951696914471686,0.06471424503810703
1772557300080686300,2.062686279296875,0.16183832916319368,-0.01009567941557616,0.0009326777402311563
1772557300100598300,2.082598388671875,0.08391103987395764,0.05218403195198625,-0.050534565978217864
1772557300120511200,2.10251123046875,-0.049559857460856435,-0.0031426088746637102,-0.03141965900585055
1772557300140423400,2.12242333984375,-0.14392097967863082,-0.05643715935181826,0.008563318749144674
1772557300160335400,2.14233544921875,-0.08952771071195602,-0.08206972285620867,-0.022531601814366874
1772557300180247300,2.162247314453125,0.20983926674425601,-0.10898100105952471,-0.10210103228744119
1772557300200159200,2.1821591796875,0.3994067298322916,-0.10120006485972553,-0.122709831079375
1772557300220071400,2.202071533203125,0.2916881133913994,-0.06180347215794026,-0.1109036031525582
1772557300239983400,2.2219833984375,0.13091829024255275,-0.044034920026920735,-0.04084215186759829
1772557300259896600,2.241896484375,-0.059278702920675275,0.026063721463270483,0.01123003547405824
1772557300279808300,2.261808349609375,-0.15716449213325975,0.007198314006254076,0.010937756262905895
1772557300299720200,2.28172021484375,-0.10016367101669311,0.01828033757805824,0.05664073736621066
1772557300319632400,2.30163232421875,0.013255202892422675,0.02249718808811158,0.05515190531425178
1772557300339544300,2.32154443359375,0.1636801576375961,-0.03986326036546379,-0.06800977945216
1772557300359456300,2.341456298828125,0.0733814625531435,-0.15525529751107095,0.056479500656202435
1772557300379368200,2.3613681640625,-0.12126432671248911,-0.14717753378916532,-0.0030241518604569137
1772557300399281400,2.381281494140625,-0.110255441442132,-0.054925512679852545,0.03276522839590907
1772557300419193600,2.401193603515625,0.04297580289542675,-0.047449550775997336,-0.0193926096688956
1772557300439105500,2.42110546875,0.25977497178018094,-0.011735957435891032,-0.1218599362517707
1772557300459017500,2.441017578125,0.3715039929062128,-0.02055774445813149,-0.17324021407281978
1772557300478929400,2.460929443359375,0.1950304046690464,-0.01675868096873164,-0.2352542785078287
1772557300498841300,2.48084130859375,0.027117724028229713,0.0365351388560608,-0.21923092607632277
1772557300518753300,2.500753173828125,0.010515548795461654,0.018769326671399175,-0.13820130512388423
1772557300538665200,2.520665283203125,0.0445768083512783,-0.001999466721527278,-0.05211405372200533
1772557300558578400,2.540578369140625,0.0328910467326641,-0.0231346092088148,0.0306031184585765
1772557300578490400,2.560490478515625,-0.05896247657835483,-0.027083785226009783,0.08441995751047507
1772557300598402600,2.580402587890625,-0.002424012276530266,-0.008434395139850675,0.06705351990694179
1772557300618314500,2.600314453125,0.1193476794362068,-0.047699397351220245,0.02426722996793687
1772557300638226400,2.620226318359375,0.14047639218270777,-0.061443662402220066,-0.022360866623651235
1772557300658138600,2.640138671875,0.07800795331001281,-0.0658772244028747,-0.008854319318663328
1772557300678050600,2.660050537109375,-0.04700198967158794,-0.04750065990872681,-0.0029116679293103515
1772557300697963500,2.679963623046875,0.07129998010396957,-0.021188114783540365,0.06542853078730404
1772557300717875500,2.69987548828125,0.15559972703456879,-0.030415012007951735,0.03689151454567909
1772557300737787400,2.719787353515625,0.12941139281094075,-0.039519524961709976,0.0010812193654477595
1772557300757699600,2.739699462890625,0.17185118913352487,-0.03422079749908298,-0.04577779990518465
1772557300777611500,2.759611572265625,0.08117781551778316,-0.021530425415188074,-0.011946257452014834
1772557300797523500,2.7795234375,0.019949732095003128,-0.03459459924753755,0.05618260006885975
1772557300817435400,2.799435302734375,-0.05801672016084194,-0.04294164489749819,0.02121925884047523
1772557300837347600,2.81934765625,-0.03559446047246456,-0.07952193806953728,0.03571523730792105
1772557300857260500,2.839260498046875,-0.049931028860807414,-0.02292231816500425,0.09719647350786254
1772557300877172500,2.85917236328125,-0.001297054073214531,-0.04631426313575357,0.10537477499479428
1772557300897084400,2.87908447265625,0.0921773484379053,-0.025463563613034784,0.1485954194967635
1772557300916996400,2.898996337890625,0.07845102090239524,-0.013915931823477149,0.0882594260754995
1772557300936908500,2.918908447265625,-0.0324643457531929,-0.03515800528395921,0.1737486385189928
1772557300956820500,2.938820556640625,-0.06048223349153995,-0.008444624272920191,0.008663911313097924
1772557300976732400,2.958732421875,0.02074000568985939,-0.011130977280065417,-0.0315499525883235
1772557300996645400,2.978645263671875,0.09855097512304782,-0.05014372176341712,-0.05928458467219024
1772557301016557600,2.9985576171875,0.08755202672481537,-0.10502678354103118,-0.056352805536612864
1772557301036469500,3.018469482421875,0.16877543494999409,-0.058764542853459716,-0.1318640649263747
1772557301056381400,3.03838134765625,0.32577041573524473,-0.016551796752400694,-0.08630675763776526
1772557301076293400,3.05829345703125,0.45614334705471987,-0.024391586999967692,-0.18462947696289048
1772557301096205600,3.07820556640625,0.23825462936758993,-0.1142817012835294,-0.32897779694180934
1772557301116117500,3.098117431640625,-0.0064577978372573844,-0.04751757451090961,-0.27419247818393633
1772557301136029400,3.118029541015625,-0.11107318756580352,0.061494698469713324,-0.07401207034057006
1772557301155942400,3.1379423828125,-0.1547702904731035,0.06608286651019006,0.018657043669652193
1772557301175854300,3.157854248046875,-0.17885902206897736,-0.027619864864088593,0.023532632083073258
1772557301195766500,3.1777666015625,-0.13372808696627617,-0.10951971104610711,0.11425214639548212
1772557301215678500,3.197678466796875,0.010007599273324012,-0.09717322049643844,0.09957197046754881
1772557301235590400,3.21759033203125,0.24098843824565408,-0.07264193276483565,0.08227247888669371
1772557301255502300,3.23750244140625,0.2860439700245857,-0.0286129675546661,0.03805871342783793
1772557301275414500,3.25741455078125,0.25293840375840665,0.011281089807860552,0.030084483145643024
1772557301295326500,3.277326416015625,0.08211597315073013,0.04014565750341862,0.01927656380748376
1772557301315239400,3.297239501953125,-0.026775194200873372,0.022530103977024554,-0.05174964085640386
1772557301335151400,3.3171513671875,-0.06559270837306976,0.040484972460381685,-0.09963920875117183
1772557301355063600,3.3370634765625,-0.16760113047361372,0.034696013795398176,-0.038042986135743556
1772557301374975500,3.3569755859375,-0.09568623334169388,0.036756124662980436,-0.010253335929010062
1772557301394887400,3.376887451171875,0.011114683732390404,-0.001655621719919145,-0.0028402649272233245
1772557301414799400,3.39679931640625,0.19193828387260436,-0.0881848082030192,-0.014048015504237264
1772557301434711600,3.416711669921875,0.2835743650406599,-0.07279540629349648,-0.002934555614553392
1772557301454624500,3.43662451171875,0.13382979377508164,-0.11649521261453628,0.0009423406177200376
1772557301474536400,3.456536376953125,0.05944996783435345,-0.05222114909198135,0.06795503532392903
1772557301494448400,3.476448486328125,0.06552022765874863,-0.04615070660449564,0.06937642816286534
1772557301514360300,3.4963603515625,-0.08044774767756462,-0.011660846373066306,0.05061561359148472
1772557301534272500,3.5162724609375,-0.09823474878072738,-0.038620457230135796,-0.0200400041943416
1772557301554184400,3.536184326171875,0.08088906170427798,-0.009001856296882034,-0.09868601794587448
1772557301574096400,3.556096435546875,0.16589140394628046,0.019097535712458192,-0.09571998948082328
1772557301594008300,3.57600830078125,0.14030162013769149,0.011994571839459239,-0.05577431152891368
1772557301613920500,3.59592041015625,0.008370937982201575,-0.046191988462954754,-0.04657653080113232
1772557301633833500,3.61583349609375,0.036303485524654386,-0.08712243966851382,-0.055733742056507614
1772557301653745400,3.635745361328125,0.01884732381105423,-0.16543105642553418,-0.06854898262908682
1772557301673657300,3.6556572265625,0.01033142440021038,-0.13888685796894132,-0.021913305519241838
1772557301693569500,3.675569580078125,0.10091244355738162,-0.0775204255213961,-0.005175667338538915
1772557301713481500,3.6954814453125,0.1096837790340185,-0.022420140796527266,0.0039065059192478655
1772557301733393400,3.715393310546875,0.09949556249678135,0.06740903708003461,-0.03840807485477998
1772557301753305300,3.735305419921875,0.018231822261214257,0.03234510328769684,-0.01620544926645234
1772557301773217500,3.755217529296875,-0.034834582015872,0.006995667573623359,0.028145733635406938
1772557301793130800,3.775130859375,-0.07347264796793461,-0.009722937113046646,0.06058927406258881
1772557301813042700,3.795042724609375,-0.0384685546040535,-0.03830843213889747,0.035640783832222224
1772557301832954600,3.81495458984375,0.16529986779391764,-0.06388250692170112,-0.05611298716505989
1772557301852866600,3.834866455078125,0.3253413766682148,-0.08139518459551036,-0.09342278192173689
1772557301872778800,3.85477880859375,0.12913959013223647,-0.04436557675339281,-0.08456042542709037
1772557301892690700,3.874690673828125,-0.0027688801914453505,-0.03968304496034979,-0.031945911369659005
1772557301912602600,3.8946025390625,0.06161036073863506,-0.0296188566615805,-0.013719167142361401
1772557301932514600,3.9145146484375,0.00256020587682724,-0.0040394846491515635,-0.04863927201721817
1772557301952427500,3.934427490234375,-0.00041910219490528107,0.011903422957286238,-0.014098996772803365
1772557301972339700,3.954339599609375,0.062352119016647334,0.00990044910442084,-0.05758318758178502
1772557301992251600,3.974251708984375,0.12825053233802317,-0.011215879084542394,0.04427212631627917
1772557302012163600,3.99416357421875,0.07049743154942989,0.0019846344785764813,0.09087543552648275
1772557302032075500,4.014075439453125,0.05481763185858726,0.002320003912784159,0.07473340688506142
1772557302051987700,4.03398779296875,0.022633856612443923,-0.030979879349097607,-0.013207052901759744
1772557302071899600,4.053899658203125,0.031468904975056645,-0.06235507815871388,0.00025930852331221103
1772557302091811600,4.0738115234375,0.034758009648323054,-0.07094477345813065,-0.0345733372638002
1772557302111724500,4.093724609375,0.008759645038843154,-0.053495845202915365,-0.009521751985140145
1772557302131636700,4.11363671875,0.0963560954272747,-0.07340977533217519,0.03289376841271296
1772557302151548700,4.133548583984375,0.16869477092921734,-0.040679983575828374,0.01790167699139565
1772557302171460600,4.153460693359375,0.12670564098358153,-0.031164076809585092,-0.029705091906618325
1772557302191372500,4.17337255859375,0.09855740486383438,-0.025872655870579183,-0.07946589703336357
1772557302211284700,4.19328466796875,0.034814708271622655,-0.024865159328468143,-0.05187827220475301
1772557302231196700,4.21319677734375,-0.017474866414070128,-0.0585140021584928,-0.07181854235166683
1772557302251108600,4.233108642578125,0.020070143604278563,-0.07849708853382617,0.009057367610093205
1772557302271021600,4.253021484375,0.04889408702850342,-0.0686645900990814,0.04279684786563739
1772557302290933500,4.27293359375,-0.04525017756819725,-0.07212291385941207,0.05250917225312441
1772557302310845700,4.292845703125,-0.041862873217463493,-0.09604542204290628,0.008963606645725666
1772557302330757600,4.312757568359375,0.1424497380822897,-0.050996904526650906,0.02333046057447791
1772557302350669600,4.332669677734375,0.24033202016353605,-0.005060096401162445,-0.028443127413094044
1772557302370582500,4.35258251953125,0.12398059993386268,-0.01940382518265396,-0.0021928338691592215
1772557302390494500,4.372494384765625,0.0005418517917394638,-0.02675937557723373,0.0041398762837052345
1772557302410406700,4.39240673828125,0.05626432353556156,-0.04380030755344778,-0.05702032953463494
1772557302430318600,4.412318603515625,0.15275018282234668,-0.06716631436534226,-0.07006377110620961
1772557302450230500,4.43223046875,0.12586451398432255,-0.10602317416723817,-0.06478093533245846
1772557302470142700,4.452142822265625,0.0728279203236103,-0.0835004132464528,-0.02574241708703339
1772557302490054700,4.4720546875,0.003440495842695236,-0.04971570560969412,-0.04260503335427493
1772557302509966600,4.491966552734375,0.04925006085932254,-0.021889431453309953,-0.003839669494424015
1772557302529879600,4.511879638671875,0.10196633652448654,-0.020301358544267713,-0.016020137561112643
1772557302549791500,4.53179150390625,0.1387491299986839,0.020626754573732614,0.02784828505879268
1772557302569703700,4.55170361328125,0.1665261947184801,-0.039641032449528574,-0.038600656551122665
1772557302589615600,4.57161572265625,0.04978197577893734,-0.08698423677422105,-0.039996147763822223
1772557302609527600,4.591527587890625,-0.0025485154390335082,-0.09924125894214958,-0.017163608507812022
1772557302629439500,4.611439453125,-0.03899813143610954,-0.12837266088034957,-0.0480902780986391
1772557302649351700,4.6313515625,-0.019756839871406553,-0.1310988344412297,-0.10089110850840806
1772557302669263600,4.651263671875,-0.1732107870489359,-0.11174699517413973,-0.08216554791349917
1772557302689176600,4.671176513671875,-0.13781214140951634,-0.09531224893014878,-0.09492116725333034
1772557302709088500,4.691088623046875,0.09573942483365536,-0.06321476372797041,-0.027058541186898946
1772557302729000400,4.71100048828125,0.3895154504150152,-0.011949198327772319,-0.03329308819491416
1772557302748912600,4.73091259765625,0.3708370534300804,0.018229776434600352,-0.048485926352720705
1772557302768824600,4.750824462890625,0.1963461634427309,0.02751640448961407,-0.016993713567312805
1772557302788736500,4.770736572265625,0.05443944619596004,0.014963833441212772,0.021984580657165496
1772557302808648700,4.790648681640625,0.004650456154346466,-0.021951354240998623,-0.03154224420590326
1772557302828560600,4.810560546875,-0.07317161919474602,-0.06690748076606541,0.03824997994992882
1772557302848473600,4.8304736328125,-0.08110416575968266,-0.0880099630927667,0.0013144801320508122
1772557302868385500,4.850385498046875,0.09472586387693882,-0.14129326152354477,0.046135929160472
1772557302888297500,4.87029736328125,0.1688736346274614,-0.1307262382691726,0.02927482899688184
1772557302908209700,4.890209716796875,0.14884206946790218,-0.0699628132160753,0.05669984714230522
1772557302928121600,4.91012158203125,0.18740707018375397,-0.10252272829823195,-0.03331102571040392
1772557302948033500,4.930033447265625,0.14677052389085293,-0.035969760058261455,-0.0479576829612255
1772557302967945500,4.949945556640625,-0.0016688099950551987,-0.02352974600624293,-0.0013522731254808605
1772557302987857700,4.969857666015625,-0.05886193881332874,-0.009872209390625357,-0.03715593763552606
1772557303007769600,4.98976953125,0.04051964191496372,-0.017370346593670545,0.01976526063987985
1772557303027682600,5.0096826171875,0.17828794418275357,-0.01877097063921392,-0.052049116993322965
1772557303047594500,5.029594482421875,0.14203706562817095,-0.11844525070376694,-0.013454141264315694
1772557303067506400,5.04950634765625,0.027132921597361564,-0.0881004909204319,0.07606834528325125
1772557303087418600,5.069418701171875,-0.0877636236488819,-0.09021445086710154,0.05819538292968646
1772557303107330600,5.08933056640625,-0.06511807659864426,-0.1179312732996419,0.027995694172848015
1772557303127242500,5.109242431640625,-0.04302665629982948,-0.0927605916859582,-0.010556337463576346
1772557303147154700,5.12915478515625,-0.051526189097762104,-0.04447225199826062,-0.01879440631372854
1772557303167066600,5.149066650390625,0.10088964720368385,-0.00899359992519021,-0.0316056465646252
1772557303186978600,5.168978515625,0.21674948452413081,-0.002479797584377229,-0.01629820558382198
1772557303206891500,5.1888916015625,0.1550023456633091,-0.011684556042216717,-0.033979499556496734
1772557303226803500,5.208803466796875,0.16244973905980586,0.006532981965318322,-0.005392561492230743
1772557303246715600,5.228715576171875,0.11374094547033309,-0.00672375529706478,-0.05720511151701212
1772557303266627600,5.248627685546875,0.11773790615200996,-0.04994633602779358,-0.04685026970859617
1772557303286539500,5.26853955078125,0.0427425786614418,-0.049606436548940834,-0.09817099936213344
1772557303306451500,5.288451416015625,-0.015553542962670325,-0.0678214903384447,-0.11065662438785656
1772557303326363600,5.30836376953125,0.00715162532031536,-0.028709888590499756,-0.027153525993973016
1772557303346275600,5.328275634765625,-0.03192132491767406,-0.034413141733407974,0.026203020336106417
1772557303366187500,5.3481875,-0.059058922690153115,-0.011253909539990127,0.021917543302942065
1772557303386100500,5.3681005859375,0.047509354671835896,0.008797967755235732,0.01069981932118535
1772557303406012400,5.388012451171875,0.19801906509101388,0.021062625240348277,-0.016335505386907607
1772557303425924600,5.407924560546875,0.27174773364663124,-0.006065035660006105,-0.062499948255810886
1772557303445836500,5.42783642578125,0.1739548834145069,-0.038288558394648134,-0.03300511983269826
1772557303465748500,5.44774853515625,-0.009870821151137351,-0.04932498925905674,-0.018299864262435583
1772557303485660700,5.46766064453125,-0.09329963046610355,-0.05501158352810889,0.012624540306068957
1772557303505572600,5.487572509765625,-0.10275485655367374,-0.06924739495571702,-0.006122592799831182
1772557303525484500,5.507484619140625,0.03697334761023521,-0.05336728691980242,-0.05743570540249347
1772557303545396500,5.527396484375,0.2187280911207199,-0.05694467048253864,-0.032790399369783695
1772557303565309400,5.547309326171875,0.1514905381500721,-0.04067720709685236,-0.03369101973762736
1772557303585221600,5.5672216796875,0.08476561087667941,-0.04763944732490927,-0.01620444461945444
1772557303605133600,5.587133544921875,0.016683423775434494,-0.017736038100905717,-0.06653188891932368
1772557303625045500,5.60704541015625,0.005744096609950065,0.011491517688147723,-0.038050621452927584
1772557303644957400,5.62695751953125,-0.002827332380414009,-0.008492555067874491,-0.05151835285117849
1772557303664869600,5.64686962890625,0.07130874793231487,-0.008338387419469654,0.003956409475579858
1772557303684781600,5.666781494140625,0.08932488161623478,-0.05726831294633448,-0.03621430940385908
1772557303704693500,5.686693603515625,0.09057166680693626,-0.10618512326329946,-0.04437260928237811
1772557303724605400,5.70660546875,0.09587737199962139,-0.07684698323924094,-0.02449499257551506
1772557303744518400,5.726518310546875,0.02364391043782234,-0.04135905188117176,0.026053053938783703
1772557303764430600,5.7464306640625,0.003039513826370239,-0.05417885903101414,0.06406705144206061
1772557303784343000,5.766343017578125,0.07576981899440288,-0.049939979352243244,0.0572414249394089
1772557303804255000,5.7862548828125,0.17235212439298628,-0.003072539313137531,0.0016054807015694677
1772557303824167000,5.8061669921875,0.15997019720375538,-0.0005528481097891926,0.007807184885907917
1772557303844079000,5.8260791015625,0.05635200181901454,-0.027380503150261935,0.040042124063707885
1772557303863991000,5.845990966796875,-0.0969400327950716,-0.044726044096238905,0.08461436583772301
1772557303883903000,5.865903076171875,-0.0891103620827198,-0.07639832615628839,0.07291718777595088
1772557303903815000,5.88581494140625,-0.010560556980967521,-0.08019969120062888,-0.02262755473582074
1772557303923727000,5.90572705078125,0.11377250965237617,-0.043604711916111406,-0.012945808149687946
1772557303943640000,5.92564013671875,0.18898527928590775,-0.051880701623857016,-0.08543264168435707
1772557303963552000,5.945552001953125,0.11944587911367416,-0.01814834522884339,-0.05382549728238955
1772557303983464000,5.9654638671875,0.04859598086476326,0.006400076300650834,-0.03496182512473315
1772557304003376000,5.985376220703125,0.004157704201340675,0.020641440686210988,-0.02816801853245124
1772557304023288000,6.0052880859375,0.07612111665010451,0.014949074263498187,0.01074910182300955
1772557304043200000,6.025199951171875,0.09168635005056858,0.022381598884426056,-0.0036022074767388403
1772557304063112000,6.04511181640625,0.1097363860040903,-0.01602196419201791,0.015325031436420977
1772557304083024100,6.065024169921875,0.034606033957004546,-0.01593662399612367,-0.007624284333363175
1772557304102936000,6.08493603515625,-0.005885550907254219,-0.02162405851539224,-0.03214464881215244
1772557304122849000,6.10484912109375,0.013995207604765891,-0.012130217450484633,-0.04797925547221675
1772557304142761000,6.124760986328125,0.03860299463868141,0.00911485168468207,-0.02398528948770836
1772557304162673000,6.1446728515625,0.10090835190415381,-0.0467303331233561,-0.01455795605406165
1772557304182585000,6.164585205078125,0.141029934412241,-0.03901121011339128,-0.014635058144573122
1772557304202497000,6.1844970703125,0.09308627997636794,-0.028889300278015433,0.005469827979523688
1772557304222409000,6.204408935546875,0.041867549392580986,0.001556727922707796,0.010249700933508575
1772557304242321000,6.22432080078125,0.005105214184522628,-0.005129069984145462,0.04299478159053251
1772557304262233000,6.244233154296875,0.03582943827211857,-0.03419588225353509,-0.03074787895781919
1772557304282145000,6.26414501953125,0.060253685432672496,-0.06552464810553937,-0.11220951638566329
1772557304302057000,6.284056884765625,0.138898183080554,-0.034885508485510947,-0.07400412449613213
1772557304321970000,6.303969970703125,0.06399988622367382,-0.04424640735313296,-0.02221663584737107
1772557304341882000,6.323882080078125,0.021214052942395208,-0.039953130606003105,0.02050460776509717
1772557304361794000,6.3437939453125,0.06017886663079262,-0.03932696153167635,0.04415703030293807
1772557304381706000,6.3637060546875,0.015230302357673644,-0.021523411152511832,0.10489758593710138
1772557304401618000,6.383617919921875,-0.11135901876986026,-0.020694741776026784,0.0936635501413606
1772557304421530000,6.403530029296875,-0.017845453292131424,0.008895327182486652,0.02364020237708464
1772557304441442000,6.423442138671875,0.2990367225885391,0.04670216647479683,-0.0760858261410147
1772557304461354000,6.44335400390625,0.1689531296044588,-0.08085928762052208,-0.1660634177786298
1772557304481266000,6.463265869140625,0.0400368268340826,-0.05169862305521965,-0.10466244374066591
1772557304501179000,6.483178955078125,0.04456687147915363,-0.05592471631765365,-0.04830371991991996
1772557304521091000,6.503091064453125,0.02891863597035408,-0.06600508856624364,0.014754556338395923
1772557304541003000,6.5230029296875,0.038702363359928126,-0.0568681346476078,0.02441904126247391
1772557304560915000,6.5429150390625,0.02317863101363182,-0.033689576699212194,0.0059847552317194635
1772557304580827000,6.562826904296875,0.016295885762572286,-0.03988214772902429,0.018451237165555356
1772557304600739000,6.582739013671875,0.1280880352526903,-0.010778035656549036,0.0033756321792490778
1772557304620651000,6.602651123046875,0.06227203951776027,-0.024130196117423473,0.03882240954302251
1772557304640563000,6.62256298828125,-0.03297171075344085,-0.059632046402990815,0.031815270727314056
1772557304660475100,6.64247509765625,0.018188567641377447,-0.05022745452411472,0.043465065983403474
1772557304680387000,6.662386962890625,0.08656710734069346,-0.06010539953578263,0.0209513834182173
1772557304700299000,6.682299072265625,0.13316519238650798,-0.07917060388121754,0.030903252182621507
1772557304720212000,6.7022119140625,0.09419453347921371,-0.038495807937160134,0.008115063524991273
1772557304740124000,6.7221240234375,0.13952888219952583,-0.01637954545803368,0.03490899895895272
1772557304760036000,6.7420361328125,0.03685761227607727,-0.010222995589673519,0.015797635650541632
1772557304779947500,6.761947509765625,0.07246727031767368,-0.03342336351107806,0.015122622465807943
1772557304799859500,6.781859375,-0.01300795013308525,-0.012755436676740646,-0.0394933676071465
1772557304819771600,6.801771728515625,-0.07511047830283642,-0.054156902927532787,-0.010479637231864035
1772557304839683600,6.82168359375,0.07734101383388042,-0.05320234214905649,-0.0553069680118002
1772557304859595500,6.841595458984375,0.16149170768260954,-0.08038838217314333,-0.09059375077458098
1772557304879507500,6.861507568359375,0.07257774495482444,-0.061917636589519674,-0.09862115428242832
1772557304899419600,6.881419677734375,0.04557984791398048,-0.07536350321583449,-0.07336001790631562
1772557304919332600,6.90133251953125,0.07032090593874454,-0.074232124565728,-0.04625920848026872
1772557304939244500,6.92124462890625,0.1350894384473562,-0.04715586505904793,-0.011205467288382351
1772557304959156500,6.941156494140625,0.14265432074367998,-0.05324994415044784,0.01912749245930463
1772557304979068400,6.961068359375,0.0008808744877576828,-0.03887589329592883,0.022350253898091612
1772557304998980600,6.980980712890625,-0.03341945452094078,-0.03758599961586297,0.04338009111369028
1772557305018892500,7.000892578125,-0.0004915829092264175,-0.027255378933250904,0.008532065094355494
1772557305038804500,7.020804443359375,0.13197276773154734,-0.05869520394429564,-0.03287621448971331
1772557305058716400,7.04071630859375,0.13417875334322452,-0.09517210980709642,-0.0659690674047917
1772557305078628600,7.060628662109375,0.08012684516012668,-0.1026310109782964,-0.07468889188989997
1772557305098540500,7.08054052734375,0.06838496944010257,-0.056989094146154815,-0.029577702667284756
1772557305118452500,7.100452392578125,0.10638006131350994,-0.04880728552788496,-0.08050959740001708
1772557305138365400,7.120365478515625,0.021228665989637373,-0.03090590079743415,-0.09657631404921412
1772557305158277600,7.140277587890625,0.09958148721456526,0.009365794238448142,-0.0039155294759199025
1772557305178189600,7.160189453125,0.10809914019107818,-0.02297178332991898,-0.05878509245114401
1772557305198101500,7.1801015625,0.07476268777847289,-0.05284245932810008,-0.021596056263614445
1772557305218013400,7.200013427734375,-0.10076280595362186,-0.023817915297858417,0.04576386271137744
1772557305237925600,7.219925537109375,0.11462649613320827,-0.03550597847141325,0.15208013807367532
1772557305257837600,7.239837646484375,0.05878595096766948,-0.055243784848786885,0.00797989283800125
1772557305277749500,7.25974951171875,-0.24350889663398265,-0.11374244330767541,0.026621081351395695
1772557305297661400,7.279661376953125,0.16248422585129738,-0.08027834592740982,-0.04922319111870602
1772557305317573600,7.29957373046875,0.3552379177600145,-0.027333156877197323,-0.09972946258420123
1772557305337486600,7.319486572265625,0.22385902426838875,-0.05728120896052569,-0.08247523491717874
