time,seconds_elapsed,z,y,x
1772557195630069800,0.12206982421875,0,0,0
1772557195669863000,0.16186279296875,-0.059624671936035156,-0.0022765398025512695,-0.015345126390457153
1772557195689760000,0.181760009765625,-0.03454780578613281,0.038445472717285156,-0.018781393766403198
1772557195709657900,0.201657958984375,-0.02064800262451172,0.0008662939071655273,0.008505791425704956
1772557195729555000,0.221554931640625,-0.013945579528808594,-0.09801936149597168,0.01986357569694519
1772557195749451300,0.241451171875,0.01190185546875,0.0199662446975708,-0.061248719692230225
1772557195769348400,0.261348388671875,0.07257652282714844,0.11488234996795654,-0.047685205936431885
1772557195789246200,0.28124609375,0.08534622192382812,0.11877501010894775,0.047986119985580444
1772557195809143300,0.301143310546875,0.1026763916015625,0.04270291328430176,0.10118052363395691
1772557195829039400,0.321039306640625,0.006810188293457031,-0.04291236400604248,0.1268889307975769
1772557195848936400,0.3409365234375,-0.08112144470214844,-0.051178932189941406,0.060931622982025146
1772557195868834300,0.360834228515625,-0.17232608795166016,-0.0014815330505371094,-0.004643529653549194
1772557195888731400,0.3807314453125,-0.14760112762451172,-0.017073988914489746,0.00013688206672668457
1772557195908627700,0.400627685546875,0.00418853759765625,-0.008484125137329102,-0.032736241817474365
1772557195928524800,0.42052490234375,0.016602516174316406,0.043071866035461426,-0.028130292892456055
1772557195948422700,0.440422607421875,-0.04372978210449219,0.05574917793273926,-0.010004788637161255
1772557195968319700,0.46031982421875,0.030211448669433594,0.06841897964477539,-0.07153341174125671
1772557195988215800,0.4802158203125,-0.013070106506347656,0.05891919136047363,-0.03613168001174927
1772557196008113000,0.50011279296875,0.00030231475830078125,0.0364457368850708,0.0027650296688079834
1772557196028010800,0.5200107421875,0.031531333923339844,0.03585553169250488,0.02686131000518799
1772557196047907800,0.539907958984375,-0.01149749755859375,0.014985084533691406,0.057431936264038086
1772557196067804000,0.559803955078125,0.07587623596191406,-0.049443602561950684,0.051832884550094604
1772557196087701000,0.579700927734375,0.059017181396484375,-0.020522594451904297,-0.00006213784217834473
1772557196107598800,0.599598876953125,-0.026224136352539062,0.04603719711303711,-0.009457141160964966
1772557196127496000,0.619495849609375,-0.0023479461669921875,0.02222740650177002,0.009534716606140137
1772557196147392300,0.639392333984375,0.04865074157714844,0.024213075637817383,0.014444053173065186
1772557196167289300,0.659289306640625,0.03361988067626953,-0.03637278079986572,0.038090288639068604
1772557196187187200,0.679187255859375,-0.0039882659912109375,-0.020504117012023926,-0.013719439506530762
1772557196207084300,0.699084228515625,-0.01743030548095703,0.02008843421936035,-0.05199047923088074
1772557196226980400,0.71898046875,0.0018339157104492188,-0.013026714324951172,-0.045408666133880615
1772557196246877400,0.73887744140625,0.006657600402832031,-0.05036163330078125,0.012305885553359985
1772557196266775300,0.758775390625,-0.07197284698486328,-0.059401869773864746,0.024889200925827026
1772557196286672400,0.77867236328125,-0.03243827819824219,-0.026012778282165527,-0.0035153329372406006
1772557196306568700,0.798568603515625,-0.01749706268310547,-0.006183981895446777,-0.055392831563949585
1772557196326465800,0.8184658203125,-0.04494285583496094,0.0199887752532959,-0.051844507455825806
1772557196346363600,0.83836376953125,-0.048671722412109375,-0.0030145645141601562,-0.01659005880355835
1772557196366260700,0.8582607421875,-0.094085693359375,-0.02454507350921631,0.03805553913116455
1772557196386156800,0.87815673828125,-0.0037670135498046875,-0.04606473445892334,0.04558160901069641
1772557196406054000,0.898053955078125,-0.027571678161621094,-0.029429912567138672,0.04905498027801514
1772557196425951700,0.91795166015625,0.04657459259033203,-0.022406578063964844,0.014600545167922974
1772557196445848800,0.937848876953125,0.0999612808227539,-0.04458153247833252,0.0031869709491729736
1772557196465745000,0.957744873046875,0.11966800689697266,-0.04179215431213379,0.03810393810272217
1772557196485642200,0.977642333984375,0.05571556091308594,-0.03659069538116455,0.03054562211036682
1772557196505540000,0.9975400390625,-0.06184101104736328,0.011467695236206055,0.0010383427143096924
1772557196525437000,1.01743701171875,-0.009058952331542969,0.026257634162902832,0.000907599925994873
1772557196545333200,1.037333251953125,0.0420989990234375,-0.025363802909851074,0.024346113204956055
1772557196565230300,1.057230224609375,0.00377655029296875,-0.039176225662231445,0.009963572025299072
1772557196585128200,1.077128173828125,-0.05194664001464844,-0.014317989349365234,-0.012849420309066772
1772557196605025300,1.097025390625,-0.08294296264648438,0.020843148231506348,0.002510666847229004
1772557196624921300,1.11692138671875,0.02596759796142578,0.021731972694396973,0.022045880556106567
1772557196644818400,1.136818359375,0.10846138000488281,-0.0028830766677856445,0.02618318796157837
1772557196664716300,1.15671630859375,0.021811485290527344,0.018178582191467285,0.031143397092819214
1772557196684613400,1.17661328125,0.0028076171875,-0.007752060890197754,0.027010828256607056
1772557196704509700,1.196509765625,-0.04343223571777344,-0.041391730308532715,0.014290302991867065
1772557196724406800,1.21640673828125,-0.0002288818359375,-0.0040242671966552734,-0.027482956647872925
1772557196744304600,1.2363046875,-0.000152587890625,0.004844069480895996,0.0011726021766662598
1772557196764201700,1.25620166015625,-0.03250598907470703,-0.009937047958374023,0.030702203512191772
1772557196784097800,1.276097900390625,0.03344249725341797,0.007460236549377441,-0.00042757391929626465
1772557196803995000,1.295994873046875,0.027971267700195312,0.014104485511779785,-0.022460490465164185
1772557196823892700,1.315892822265625,-0.0050754547119140625,0.04391825199127197,-0.021418839693069458
1772557196843789800,1.335789794921875,-0.03256034851074219,0.013779759407043457,0.002888709306716919
1772557196863686100,1.35568603515625,-0.04073619842529297,-0.005423069000244141,0.02691274881362915
1772557196883583200,1.375583251953125,-0.020975112915039062,-0.01405489444732666,0.027067244052886963
1772557196903481000,1.395481201171875,-0.01580333709716797,-0.02657902240753174,0.02704620361328125
1772557196923378200,1.415378173828125,0.07256412506103516,-0.020655393600463867,0.044631630182266235
1772557196943274200,1.435274169921875,0.05651664733886719,-0.008252859115600586,0.0579964816570282
1772557196963171300,1.45517138671875,0.0923166275024414,-0.022697091102600098,0.06667771935462952
1772557196983069400,1.4750693359375,0.03923511505126953,-0.0010573863983154297,0.02374926209449768
1772557197002966300,1.49496630859375,-0.07251930236816406,0.027083277702331543,-0.009550660848617554
1772557197022862600,1.514862548828125,-0.15340805053710938,-0.04283738136291504,0.013540714979171753
1772557197042759700,1.534759765625,-0.1257190704345703,-0.037326693534851074,0.008601635694503784
1772557197062657500,1.554657470703125,-0.0389862060546875,0.02491593360900879,0.008189350366592407
1772557197082554600,1.5745546875,0.05902576446533203,0.008704185485839844,0.05926671624183655
1772557197102450700,1.59445068359375,0.112548828125,-0.010053515434265137,0.03923410177230835
1772557197122347800,1.61434765625,0.03490924835205078,0.007864117622375488,0.0146389901638031
1772557197142245600,1.63424560546875,-0.04500865936279297,0.013184785842895508,0.009073793888092041
1772557197162142700,1.654142822265625,-0.0113067626953125,0.014185547828674316,-0.010013967752456665
1772557197182039000,1.6740390625,0.03995323181152344,0.03227245807647705,-0.019011884927749634
1772557197201936100,1.69393603515625,0.08055305480957031,0.005796909332275391,-0.013598591089248657
1772557197221834000,1.713833984375,0.0321044921875,0.006342053413391113,-0.012556999921798706
1772557197241731000,1.73373095703125,-0.033286094665527344,0.002717733383178711,-0.025691211223602295
1772557197261627100,1.753627197265625,-0.0829458236694336,0.015930533409118652,-0.0489581823348999
1772557197281524200,1.773524169921875,-0.1687002182006836,0.038945555686950684,-0.03942403197288513
1772557197301422000,1.793422119140625,-0.10412311553955078,0.01887953281402588,0.0077311694622039795
1772557197321319200,1.813319091796875,0.032535552978515625,0.0299760103225708,0.03120565414428711
1772557197341215500,1.833215576171875,0.1792621612548828,0.016344308853149414,0.031617820262908936
1772557197361112600,1.853112548828125,0.13202476501464844,0.04939723014831543,0.009382486343383789
1772557197381010400,1.873010498046875,0.035630226135253906,0.03880047798156738,-0.012869179248809814
1772557197400907500,1.892907470703125,-0.04849720001220703,0.03045523166656494,-0.01716110110282898
1772557197420803600,1.912803466796875,-0.0838632583618164,0.034003496170043945,-0.017040759325027466
1772557197440700700,1.93270068359375,-0.05805492401123047,0.04763436317443848,0.001982659101486206
1772557197460598500,1.9525986328125,-0.0517730712890625,0.024703145027160645,0.03527370095252991
1772557197480495600,1.97249560546875,-0.03649425506591797,0.048769235610961914,0.031701087951660156
1772557197500392000,1.992391845703125,0.05239391326904297,0.0484468936920166,0.013408452272415161
1772557197520289000,2.0122890625,0.0135650634765625,0.014832615852355957,0.027380406856536865
1772557197540187000,2.032186767578125,0.045508384704589844,-0.023012638092041016,0.05971717834472656
1772557197560084000,2.052083984375,0.0721120834350586,-0.011294007301330566,0.05382856726646423
1772557197579980000,2.07197998046875,0.014728546142578125,0.007862567901611328,0.016312897205352783
1772557197599877000,2.091877197265625,-0.054775238037109375,0.009047746658325195,0.0309048593044281
1772557197619775000,2.11177490234375,-0.04349994659423828,0.021110892295837402,0.0023200511932373047
1772557197639672000,2.131672119140625,-0.055942535400390625,0.03904378414154053,-0.011728674173355103
1772557197659568400,2.151568359375,-0.054305076599121094,-0.01186978816986084,0.013156920671463013
1772557197679465500,2.171465576171875,-0.03419303894042969,-0.015308022499084473,0.0011959969997406006
1772557197699363300,2.19136328125,0.08715248107910156,0.05033278465270996,-0.0491274893283844
1772557197719260400,2.211260498046875,0.056514739990234375,0.053423166275024414,-0.016161203384399414
1772557197739156700,2.23115673828125,-0.04253196716308594,0.023990631103515625,0.0167618989944458
1772557197759053800,2.2510537109375,-0.08289527893066406,0.0008255243301391602,0.05426955223083496
1772557197778951700,2.27095166015625,0.01676177978515625,-0.002134084701538086,0.011417746543884277
1772557197798848800,2.290848876953125,0.06232452392578125,0.017447829246520996,0.0065066516399383545
1772557197818744800,2.310744873046875,0.0696420669555664,0.03892111778259277,-0.016776561737060547
1772557197838642000,2.330641845703125,0.039900779724121094,0.01642584800720215,0.00764387845993042
1772557197858539800,2.350539794921875,-0.05370044708251953,0.004201769828796387,0.01401481032371521
1772557197878436900,2.370436767578125,-0.010123252868652344,0.02109980583190918,-0.008376091718673706
1772557197898333200,2.390333251953125,-0.060619354248046875,0.015251994132995605,-0.016902923583984375
1772557197918230300,2.410230224609375,-0.035674095153808594,0.02096104621887207,-0.02128008008003235
1772557197938128100,2.430128173828125,-0.016315460205078125,0.04616415500640869,-0.0031409859657287598
1772557197958025200,2.450025146484375,-0.02547168731689453,0.03883194923400879,0.010263800621032715
1772557197977921300,2.46992138671875,-0.034328460693359375,0.02224111557006836,0.02884078025817871
1772557197997818400,2.489818359375,0.022003173828125,0.014516949653625488,0.023699522018432617
1772557198017716200,2.50971630859375,0.04414653778076172,0.02972579002380371,-0.018543094396591187
1772557198037613300,2.52961328125,0.0008592605590820312,0.04398143291473389,-0.022663980722427368
1772557198057509600,2.549509521484375,0.06563282012939453,0.04249858856201172,-0.013497769832611084
1772557198077406700,2.56940673828125,0.02200603485107422,0.016530871391296387,0.01922181248664856
1772557198097304600,2.5893046875,-0.034088134765625,0.03768050670623779,0.024287700653076172
1772557198117201700,2.60920166015625,-0.023630142211914062,0.03543221950531006,0.025118082761764526
1772557198137097700,2.62909765625,0.00496673583984375,0.024425745010375977,0.0017868280410766602
1772557198156994800,2.648994873046875,-0.018398284912109375,0.03805088996887207,0.006155878305435181
1772557198176892700,2.668892578125,-0.06427860260009766,0.03873789310455322,-0.013448446989059448
1772557198196789800,2.688789794921875,-0.0440216064453125,-0.047342538833618164,0.013893663883209229
1772557198216686000,2.70868603515625,-0.02911853790283203,-0.0010135173797607422,0.018555045127868652
1772557198256481000,2.74848095703125,0.10856437683105469,0.06227409839630127,-0.003142058849334717
1772557198276378000,2.768378173828125,0.06850624084472656,0.04667222499847412,-0.007322847843170166
1772557198296274200,2.788274169921875,-0.03516960144042969,0.0052280426025390625,-0.002111464738845825
1772557198316171300,2.808171142578125,-0.11268806457519531,-0.01816689968109131,0.008714467287063599
1772557198336069000,2.828069091796875,-0.011929512023925781,-0.01673102378845215,-0.009242922067642212
1772557198355966200,2.84796630859375,-0.0024766921997070312,-0.005393862724304199,0.004619240760803223
1772557198375862500,2.867862548828125,-0.025892257690429688,0.0023332834243774414,0.040685057640075684
1772557198395759600,2.887759521484375,-0.0671539306640625,0.015116572380065918,0.04852038621902466
1772557198415657500,2.907657470703125,-0.033036231994628906,-0.0005341768264770508,0.011057645082473755
1772557198435554600,2.927554443359375,0.004532814025878906,-0.006179213523864746,0.02133658528327942
1772557198455450600,2.94745068359375,0.07337284088134766,0.02471303939819336,-0.020902186632156372
1772557198475348000,2.967347900390625,0.07077407836914062,0.0159684419631958,-0.0023847222328186035
1772557198495245800,2.987245849609375,0.06390571594238281,0.010291695594787598,-0.0034855008125305176
1772557198515142700,3.007142578125,0.03885841369628906,0.017752647399902344,0.010025888681411743
1772557198535039000,3.0270390625,-0.0037622451782226562,0.04692387580871582,0.001615077257156372
1772557198554936000,3.04693603515625,-0.021805763244628906,0.000639796257019043,-0.010211676359176636
1772557198574834000,3.066833984375,-0.025602340698242188,0.03181254863739014,-0.045366644859313965
1772557198594731000,3.08673095703125,-0.020241737365722656,0.04095268249511719,-0.048752665519714355
1772557198614627300,3.10662744140625,-0.019776344299316406,0.027131080627441406,-0.023603588342666626
1772557198634524400,3.1265244140625,0.013210296630859375,-0.02002573013305664,-0.002925962209701538
1772557198654422300,3.14642236328125,0.059223175048828125,-0.011956572532653809,0.008042693138122559
1772557198674319400,3.1663193359375,0.12718963623046875,-0.024744749069213867,0.0028756260871887207
1772557198694215400,3.18621533203125,0.007840156555175781,-0.05998802185058594,0.038754045963287354
1772557198714112500,3.206112548828125,-0.12642860412597656,-0.026723384857177734,0.06994101405143738
1772557198734010400,3.22601025390625,-0.09463119506835938,0.012625932693481445,0.04384574294090271
1772557198753907500,3.245907470703125,-0.09659099578857422,0.06707978248596191,0.036259859800338745
1772557198773803800,3.2658037109375,-0.01991558074951172,0.08799552917480469,0.047094523906707764
1772557198793700900,3.285700927734375,0.049859046936035156,0.017940044403076172,0.07719209790229797
1772557198813598700,3.3055986328125,0.038867950439453125,0.004070162773132324,0.01898139715194702
1772557198833495800,3.325495849609375,-0.02276325225830078,0.04247939586639404,-0.023643016815185547
1772557198853392000,3.345391845703125,0.03789329528808594,0.07569777965545654,-0.01981043815612793
1772557198873289000,3.3652890625,0.008706092834472656,0.07934629917144775,0.026025623083114624
1772557198893186800,3.385186767578125,0.07337379455566406,0.07035744190216064,0.003065437078475952
1772557198913084000,3.405083984375,0.10400581359863281,0.02555668354034424,0.013518422842025757
1772557198932980200,3.424980224609375,0.008852005004882812,0.018355131149291992,0.004790633916854858
1772557198952877300,3.444877197265625,-0.03717041015625,-0.050786614418029785,0.008973240852355957
1772557198972775200,3.464775146484375,-0.08664512634277344,-0.09219574928283691,0.004790604114532471
1772557198992672300,3.48467236328125,-0.03742027282714844,-0.05802929401397705,0.011819273233413696
1772557199012568300,3.504568359375,0.028840065002441406,-0.026227474212646484,0.037110358476638794
1772557199032465700,3.524465576171875,0.08390140533447266,0.07225155830383301,0.04684832692146301
1772557199052363500,3.544363525390625,0.08203411102294922,0.03969717025756836,0.04188409447669983
1772557199072260400,3.56426025390625,-0.08184146881103516,-0.04616105556488037,0.00021117925643920898
1772557199092156700,3.58415673828125,-0.20401477813720703,-0.022025704383850098,-0.044265538454055786
1772557199112053800,3.6040537109375,-0.1330718994140625,0.010373473167419434,-0.031613945960998535
1772557199131951600,3.62395166015625,0.06526565551757812,0.035996079444885254,-0.03521499037742615
1772557199151848700,3.6438486328125,0.0954751968383789,0.06320500373840332,-0.08730268478393555
1772557199171745000,3.6637451171875,-0.01868152618408203,0.02413499355316162,-0.07667934894561768
1772557199191642000,3.68364208984375,-0.01794147491455078,0.04075455665588379,-0.02235075831413269
1772557199211540000,3.7035400390625,0.08940315246582031,-0.009572148323059082,0.02091318368911743
1772557199231437000,3.72343701171875,0.08691883087158203,-0.05917787551879883,0.04848945140838623
1772557199251333000,3.7433330078125,-0.003414154052734375,-0.009999871253967285,0.0715150237083435
1772557199271230200,3.763230224609375,-0.02136516571044922,-0.017750978469848633,0.07506805658340454
1772557199291128000,3.783128173828125,-0.06198596954345703,-0.024090290069580078,0.045454978942871094
1772557199311025200,3.803025146484375,-0.12930679321289062,-0.01884782314300537,0.007477670907974243
1772557199330921500,3.82292138671875,-0.04200458526611328,0.0348663330078125,-0.030624598264694214
1772557199350818600,3.842818603515625,-0.027113914489746094,0.07414495944976807,-0.05060705542564392
1772557199370716400,3.86271630859375,-0.012813568115234375,0.07608938217163086,-0.015534371137619019
1772557199390613500,3.882613525390625,-0.05473899841308594,0.06528055667877197,0.01550409197807312
1772557199410509600,3.902509521484375,0.01125335693359375,0.053672194480895996,0.02354055643081665
1772557199430407000,3.922406982421875,0.14500141143798828,0.04309570789337158,0.035834550857543945
1772557199450304800,3.9423046875,0.10369205474853516,0.033486366271972656,0.05696561932563782
1772557199470201600,3.96220166015625,-0.005650520324707031,0.010235309600830078,0.08740159869194031
1772557199490098000,3.982097900390625,-0.07925891876220703,0.01243293285369873,0.09098723530769348
1772557199509995000,4.0019951171875,-0.030159950256347656,0.028583884239196777,0.06213414669036865
1772557199529892900,4.021892822265625,-0.005730628967285156,0.025171279907226562,0.038370490074157715
1772557199549790000,4.0417900390625,-0.042428016662597656,0.055629611015319824,0.02864745259284973
1772557199569686300,4.061686279296875,-0.07820796966552734,0.045526981353759766,0.037985533475875854
1772557199589583400,4.081583251953125,-0.0064373016357421875,-0.0010536909103393555,0.024246424436569214
1772557199609481200,4.101481201171875,0.026139259338378906,-0.04750216007232666,0.0062063634395599365
1772557199629378300,4.12137841796875,-0.007048606872558594,-0.009614944458007812,-0.016256898641586304
1772557199649274400,4.1412744140625,-0.020830154418945312,0.03327000141143799,-0.020196378231048584
1772557199669171500,4.16117138671875,-0.02960205078125,0.03818106651306152,-0.0006419122219085693
1772557199689069300,4.1810693359375,0.0035047531127929688,-0.012111544609069824,-0.0007411539554595947
1772557199708966400,4.20096630859375,-0.08521747589111328,-0.002169013023376465,-0.02823019027709961
1772557199728862700,4.22086279296875,-0.08807373046875,-0.02261173725128174,-0.030779093503952026
1772557199748759800,4.240759765625,0.03884601593017578,0.01660609245300293,-0.0327814519405365
1772557199768657700,4.26065771484375,0.14367198944091797,0.05476367473602295,-0.02140149474143982
1772557199788554800,4.2805546875,0.0834808349609375,0.0380321741104126,-0.0013437271118164062
1772557199808450800,4.300450927734375,0.011376380920410156,0.04064023494720459,-0.009642243385314941
1772557199828348200,4.32034814453125,-0.021470069885253906,0.053629279136657715,-0.031971126794815063
1772557199848246000,4.34024609375,-0.03013324737548828,0.061818480491638184,0.002091526985168457
1772557199888039200,4.3800390625,-0.06140613555908203,0.016484618186950684,0.04294523596763611
1772557199907936300,4.399936279296875,-0.08791923522949219,-0.001650094985961914,0.042092204093933105
1772557199927834000,4.419834228515625,0.02536773681640625,0.03540372848510742,0.01813754439353943
1772557199947731200,4.439731201171875,0.11215877532958984,0.036072731018066406,0.02683517336845398
1772557199967627500,4.45962744140625,0.08998775482177734,0.048285722732543945,0.016473740339279175
1772557199987524600,4.479524658203125,0.06408500671386719,0.017276525497436523,0.011380672454833984
1772557200007422500,4.49942236328125,0.02064037322998047,-0.013423919677734375,0.015807420015335083
1772557200027319600,4.519319580078125,-0.0445709228515625,0.022138476371765137,0.006640046834945679
1772557200047215600,4.539215576171875,-0.08483695983886719,0.003576040267944336,-0.006913602352142334
1772557200067113000,4.559113037109375,-0.10567188262939453,-0.011330246925354004,-0.011060595512390137
1772557200087010800,4.5790107421875,-0.038138389587402344,0.027022361755371094,-0.016062498092651367
1772557200106907600,4.59890771484375,0.013287544250488281,0.0456007719039917,0.0063634514808654785
1772557200126804000,4.618803955078125,0.04462623596191406,0.016334056854248047,0.055928826332092285
1772557200146701000,4.638701171875,0.04743671417236328,-0.004830360412597656,0.053548455238342285
1772557200166599000,4.658598876953125,0.036515235900878906,-0.008679866790771484,0.047214776277542114
1772557200186496000,4.67849609375,0.021409988403320312,-0.008509159088134766,0.03243342041969299
1772557200206392300,4.698392333984375,0.016036033630371094,0.010373830795288086,0.013350754976272583
1772557200226289400,4.718289306640625,0.02481365203857422,0.02353668212890625,-0.028923362493515015
1772557200246187300,4.738187255859375,-0.022284507751464844,0.009229063987731934,-0.02432084083557129
1772557200266084400,4.75808447265625,-0.11452484130859375,-0.005965232849121094,-0.010651707649230957
1772557200285980400,4.77798046875,-0.09309673309326172,0.005495548248291016,-0.0015999376773834229
1772557200305877500,4.79787744140625,-0.040042877197265625,0.02583456039428711,0.012905001640319824
1772557200325775400,4.817775390625,0.06705951690673828,0.0015195608139038086,0.01820191740989685
1772557200345672400,4.83767236328125,0.12016868591308594,0.00251162052154541,-0.004867374897003174
1772557200365568800,4.85756884765625,0.0977926254272461,0.043042898178100586,-0.00922289490699768
1772557200385465900,4.8774658203125,0.01606464385986328,0.03114020824432373,0.009337902069091797
1772557200405363700,4.89736376953125,-0.030605316162109375,-0.003254532814025879,0.027713000774383545
1772557200425260800,4.9172607421875,-0.06660079956054688,-0.0265810489654541,0.018744081258773804
1772557200445157000,4.9371572265625,-0.064727783203125,0.02281820774078369,0.01446753740310669
1772557200465054200,4.95705419921875,-0.04935169219970703,0.05002331733703613,0.004682660102844238
1772557200484952000,4.9769521484375,0.016397476196289062,0.030301809310913086,-0.010130554437637329
1772557200504849200,4.99684912109375,0.024705886840820312,-0.023496031761169434,0.03255239129066467
1772557200524745200,5.0167451171875,0.07933521270751953,0.005194902420043945,0.027846962213516235
1772557200544642300,5.036642333984375,0.07684993743896484,0.05906867980957031,0.004762560129165649
1772557200564540200,5.0565400390625,0.04223442077636719,0.040619730949401855,0.0006251037120819092
1772557200584437200,5.076437255859375,-0.0329437255859375,-0.00449681282043457,-0.002941429615020752
1772557200604333600,5.09633349609375,-0.022432327270507812,-0.015019655227661133,0.016476929187774658
1772557200624230700,5.116230712890625,-0.0030946731567382812,0.0032994747161865234,-0.0069792866706848145
1772557200644128500,5.13612841796875,-0.03540325164794922,0.012462377548217773,0.007788300514221191
1772557200664025600,5.156025634765625,-0.052834510803222656,-0.01962745189666748,0.007752120494842529
1772557200683922000,5.175921875,-0.06527042388916016,-0.03514242172241211,0.021363496780395508
1772557200703819000,5.195819091796875,-0.06842803955078125,0.012815237045288086,0.020781129598617554
1772557200723716900,5.215716796875,-0.011383056640625,0.012921690940856934,0.025975704193115234
1772557200743614000,5.235614013671875,0.13221073150634766,-0.009448051452636719,0.012091755867004395
1772557200763510000,5.255510009765625,0.18830299377441406,0.016320347785949707,0.005862921476364136
1772557200783407000,5.275406982421875,0.039066314697265625,0.00788736343383789,0.03324815630912781
1772557200803305000,5.295304931640625,-0.04980945587158203,-0.04612600803375244,0.05231750011444092
1772557200823202000,5.3152021484375,-0.04332733154296875,-0.018801331520080566,0.006111592054367065
1772557200843098400,5.335098388671875,-0.0001316070556640625,0.03170144557952881,-0.025933444499969482
1772557200862995500,5.354995361328125,-0.02327251434326172,0.016936182975769043,-0.0021577179431915283
1772557200882893300,5.374893310546875,-0.05960655212402344,-0.015143990516662598,-0.01641598343849182
1772557200902790400,5.394790283203125,0.007033348083496094,-0.008894920349121094,-0.016848742961883545
1772557200922686700,5.414686767578125,-0.025816917419433594,-0.025510787963867188,0.025731146335601807
1772557200942583800,5.434583740234375,-0.0021162033081054688,-0.004322052001953125,0.030548691749572754
1772557200962481700,5.454481689453125,0.11357975006103516,0.0008782148361206055,-0.01750960946083069
1772557200982378800,5.474378662109375,0.13340377807617188,0.03965878486633301,-0.014706641435623169
1772557201002274800,5.49427490234375,0.027840614318847656,0.025076985359191895,0.01998278498649597
1772557201022172000,5.514171875,-0.13927745819091797,0.0035706758499145508,0.0272180438041687
1772557201042069800,5.53406982421875,-0.19976043701171875,0.010563492774963379,0.022194713354110718
1772557201061966800,5.553966796875,-0.13393306732177734,0.05416679382324219,-0.01959666609764099
1772557201081863200,5.57386328125,0.012902259826660156,0.0736854076385498,-0.013627231121063232
1772557201101760300,5.59376025390625,0.16475868225097656,0.022928953170776367,0.019837617874145508
1772557201121658000,5.613658203125,0.22451400756835938,0.014083147048950195,-0.00888216495513916
1772557201141555200,5.63355517578125,0.15328216552734375,-0.025986313819885254,0.01367005705833435
1772557201161451500,5.653451416015625,0.052265167236328125,-0.05278146266937256,0.069037526845932
1772557201181348600,5.6733486328125,0.010283470153808594,-0.02021169662475586,0.08754053711891174
1772557201201246500,5.69324658203125,-0.007092475891113281,-0.02159404754638672,0.05460524559020996
1772557201221143600,5.7131435546875,-0.05193328857421875,0.035154104232788086,-0.024920552968978882
1772557201241039600,5.73303955078125,-0.11434364318847656,0.04359269142150879,-0.043213844299316406
1772557201260936700,5.752936767578125,-0.17989253997802734,0.014590620994567871,-0.010903865098953247
1772557201280834600,5.77283447265625,-0.20687389373779297,-0.00920557975769043,-0.0066935718059539795
1772557201300731600,5.792731689453125,-0.07132720947265625,-0.007185220718383789,-0.011307895183563232
1772557201320628000,5.8126279296875,0.12033557891845703,0.06556272506713867,-0.01679253578186035
1772557201340525000,5.832525146484375,0.15365314483642578,0.06135749816894531,0.03374782204627991
1772557201360423000,5.8524228515625,0.08910846710205078,-0.010571122169494629,0.08355966210365295
1772557201380320000,5.872320068359375,-0.014912605285644531,-0.024869561195373535,0.04930123686790466
1772557201400216300,5.89221630859375,-0.0834197998046875,-0.0409928560256958,-0.002087622880935669
1772557201420113400,5.912113525390625,-0.09444522857666016,0.0010263919830322266,-0.0327947735786438
1772557201440011300,5.93201123046875,-0.017294883728027344,0.06545376777648926,-0.044140785932540894
1772557201459908400,5.951908447265625,0.020364761352539062,0.07662320137023926,-0.010273873805999756
1772557201479804400,5.971804443359375,-0.026613235473632812,0.06987321376800537,0.0033961832523345947
1772557201499701500,5.991701416015625,-0.06300544738769531,-0.009508609771728516,0.004357695579528809
1772557201519599400,6.011599365234375,-0.04279327392578125,-0.016407370567321777,0.020624667406082153
1772557201539496400,6.031496337890625,0.050980567932128906,-0.024478673934936523,0.012787044048309326
1772557201559392800,6.051392822265625,0.10029029846191406,0.03085947036743164,0.02671632170677185
1772557201579289900,6.071289794921875,0.06957817077636719,0.00383150577545166,0.035621315240859985
1772557201599187700,6.091187744140625,-0.006381988525390625,0.005441904067993164,0.03990200161933899
1772557201619084800,6.111084716796875,-0.056792259216308594,0.017180204391479492,0.02044498920440674
1772557201638980900,6.13098095703125,-0.07328033447265625,0.024849295616149902,0.01105472445487976
1772557201658878200,6.150878173828125,-0.04317283630371094,0.010776638984680176,0.019951164722442627
1772557201678776000,6.170776123046875,-0.02808856964111328,0.05823206901550293,0.014937996864318848
1772557201698673200,6.190673095703125,0.01900959014892578,0.029111623764038086,0.038014769554138184
1772557201718569200,6.2105693359375,0.060276031494140625,0.02151048183441162,0.028039395809173584
1772557201738466300,6.23046630859375,0.07274532318115234,0.02109241485595703,0.004519104957580566
1772557201758364200,6.2503642578125,-0.017060279846191406,0.011909127235412598,-0.013158917427062988
1772557201778261200,6.27026123046875,-0.07642555236816406,-0.0041294097900390625,-0.025388866662979126
1772557201798157600,6.290157470703125,-0.05543327331542969,0.02872753143310547,-0.052051812410354614
1772557201818054700,6.3100546875,0.020343780517578125,0.0517197847366333,-0.03256043791770935
1772557201837952500,6.329952392578125,0.010507583618164062,0.030908584594726562,0.00990992784500122
1772557201857849600,6.349849609375,-0.04993438720703125,0.0015202760696411133,0.01980990171432495
1772557201877746000,6.369745849609375,-0.05772209167480469,0.02077484130859375,-0.0018762648105621338
1772557201897643000,6.38964306640625,0.0550689697265625,0.035012245178222656,-0.020137518644332886
1772557201917540900,6.409540771484375,0.07190322875976562,0.06082439422607422,0.0023514628410339355
1772557201937438000,6.42943798828125,0.03302574157714844,0.03235363960266113,0.028881490230560303
1772557201957334000,6.449333984375,-0.0370330810546875,0.04231452941894531,0.027433007955551147
1772557201977231000,6.469231201171875,-0.08666229248046875,-0.001044631004333496,0.003932476043701172
1772557201997129000,6.48912890625,-0.014512062072753906,0.013465046882629395,0.004877835512161255
1772557202017026000,6.509026123046875,0.0184173583984375,0.07236921787261963,0.0013636648654937744
1772557202036922400,6.52892236328125,0.05515289306640625,0.06294786930084229,-0.012315809726715088
1772557202056819500,6.5488193359375,-0.01576709747314453,0.021958112716674805,-0.021978110074996948
1772557202076717300,6.56871728515625,-0.09859657287597656,0.01729881763458252,0.024556636810302734
1772557202096614400,6.588614501953125,-0.10503387451171875,-0.01728677749633789,0.052264392375946045
1772557202116510700,6.6085107421875,0.041534423828125,0.008704900741577148,0.03215974569320679
1772557202136407800,6.62840771484375,0.15594482421875,0.017168641090393066,0.024747997522354126
1772557202156305700,6.6483056640625,0.08666515350341797,0.026030421257019043,0.06014570593833923
1772557202176202800,6.66820263671875,0.052376747131347656,-0.023267030715942383,0.067869633436203
1772557202196098800,6.688098876953125,-0.07824230194091797,-0.013347268104553223,0.020390212535858154
1772557202215996000,6.707995849609375,-0.13106346130371094,-0.009082555770874023,0.0020869076251983643
1772557202235893800,6.727893798828125,-0.08997154235839844,0.025368094444274902,-0.0020292997360229492
1772557202255790800,6.747790771484375,-0.031838417053222656,0.031627774238586426,-0.006309181451797485
1772557202275687200,6.767687255859375,-0.0034332275390625,-0.003733992576599121,0.01734459400177002
1772557202295584300,6.787584228515625,0.028710365295410156,-0.010633468627929688,0.012719333171844482
1772557202315482000,6.807482177734375,0.041390419006347656,0.0190199613571167,-0.005896389484405518
1772557202335379200,6.827379150390625,0.049315452575683594,0.013465523719787598,0.021837174892425537
1772557202355275500,6.847275634765625,0.033992767333984375,0.04417693614959717,0.006779104471206665
1772557202375172600,6.867172607421875,-0.02247333526611328,-0.0047986507415771484,0.01126021146774292
1772557202395070500,6.887070556640625,-0.06800365447998047,0.009139180183410645,0.011730670928955078
1772557202414967600,6.906967529296875,-0.05206012725830078,0.028408050537109375,0.017008990049362183
1772557202434863600,6.926863525390625,0.009622573852539062,0.03779149055480957,0.012592583894729614
1772557202454760700,6.9467607421875,0.03707695007324219,0.05035722255706787,-0.01583796739578247
1772557202474658600,6.966658447265625,0.0034933090209960938,0.020627498626708984,0.008064717054367065
1772557202494555600,6.9865556640625,0.012711524963378906,0.03304088115692139,0.03170359134674072
1772557202514452000,7.006451904296875,0.0635843276977539,0.038549184799194336,0.002541869878768921
1772557202534349000,7.02634912109375,0.011061668395996094,0.029299020767211914,-0.0018210113048553467
1772557202554247000,7.046246826171875,-0.058424949645996094,-0.0016323328018188477,0.018090099096298218
1772557202574144000,7.06614404296875,-0.014727592468261719,0.03462553024291992,-0.019336014986038208
1772557202594040300,7.086040283203125,-0.00033092498779296875,0.03338050842285156,-0.03291723132133484
1772557202613937400,7.1059375,-0.042034149169921875,-0.0043680667877197266,0.010395556688308716
1772557202633835300,7.125835205078125,-0.050017356872558594,0.014905929565429688,0.006397545337677002
1772557202653732400,7.145732421875,0.006979942321777344,0.034029364585876465,-0.030418485403060913
1772557202673628400,7.16562841796875,0.02505970001220703,0.03887796401977539,-0.0019719302654266357
1772557202693525500,7.185525390625,-0.017620086669921875,0.02042520046234131,0.039903342723846436
1772557202713423400,7.20542333984375,0.0060291290283203125,0.020145773887634277,0.048069506883621216
1772557202733320400,7.225320556640625,0.015139579772949219,0.018929123878479004,0.0331343412399292
1772557202753216800,7.245216796875,0.04723548889160156,-0.02020251750946045,0.03218129277229309
1772557202773113900,7.26511376953125,0.004367828369140625,-0.012483596801757812,0.012361407279968262
1772557202793011700,7.28501171875,0.032390594482421875,-0.019364476203918457,0.0255853533744812
1772557202812908800,7.30490869140625,-0.06564617156982422,-0.015604138374328613,0.016397953033447266
1772557202832804900,7.324804931640625,-0.06816959381103516,0.012572407722473145,-0.00018230080604553223
1772557202852702200,7.3447021484375,-0.1634368896484375,0.041016221046447754,0.014617770910263062
1772557202872600000,7.36460009765625,-0.15865230560302734,0.015333771705627441,-0.05164617300033569
1772557202892497200,7.3844970703125,0.2993812561035156,0.10833585262298584,-0.1713460385799408
1772557202912393200,7.404393310546875,0.22449684143066406,0.11225628852844238,-0.03888535499572754
1772557202932290300,7.424290283203125,0.09265804290771484,-0.0283966064453125,0.18111106753349304
1772557202952188200,7.444188232421875,0.07206535339355469,-0.08936023712158203,0.1232832670211792
1772557202972085200,7.464085205078125,-0.06363773345947266,0.023279666900634766,0.027815908193588257
1772557202991981600,7.483981689453125,-0.3437957763671875,0.022306203842163086,0.03434014320373535
