time,seconds_elapsed,z,y,x
1772557143917620700,0.097620849609375,0,0,0
1772557143977312000,0.15731201171875,0.007428169250488281,0.0055599212646484375,-0.009209081530570984
1772557143997209000,0.177208984375,0.033104896545410156,0.0405576229095459,-0.04911888390779495
1772557144017105400,0.19710546875,0.0361480712890625,0.002412557601928711,-0.01702641323208809
1772557144037002500,0.21700244140625,-0.03408050537109375,-0.017706632614135742,0.01437322422862053
1772557144056900400,0.236900390625,-0.10497283935546875,-0.00007867813110351562,0.017586007714271545
1772557144076797400,0.25679736328125,-0.04207420349121094,0.024312496185302734,-0.009056836366653442
1772557144096693800,0.27669384765625,-0.0031442642211914062,0.007376194000244141,0.005326379090547562
1772557144116590800,0.2965908203125,-0.015641212463378906,0.026861190795898438,-0.0381755605340004
1772557144136488700,0.31648876953125,-0.0053615570068359375,0.005905508995056152,-0.022440798580646515
1772557144156385800,0.3363857421875,-0.022490501403808594,-0.012952446937561035,-0.021363429725170135
1772557144176282000,0.3562822265625,-0.09201526641845703,0.037012577056884766,-0.02374955639243126
1772557144196179200,0.37617919921875,-0.05048370361328125,0.023099184036254883,-0.035223338752985
1772557144216077000,0.3960771484375,-0.011999130249023438,0.024967670440673828,-0.029166769236326218
1772557144235974100,0.41597412109375,0.019743919372558594,0.01736438274383545,-0.013895649462938309
1772557144255870500,0.435870361328125,0.05009651184082031,-0.0006104707717895508,0.03363025188446045
1772557144275767600,0.455767578125,0.09787464141845703,0.0007134675979614258,0.03882524371147156
1772557144295665400,0.47566552734375,0.12143993377685547,0.052884578704833984,-0.017401471734046936
1772557144315562500,0.4955625,0.053165435791015625,-0.011931777000427246,0.0004469044506549835
1772557144335458800,0.515458740234375,-0.1127777099609375,0.01981961727142334,0.008735883980989456
1772557144355356000,0.53535595703125,-0.20403671264648438,-0.06328165531158447,0.060185130685567856
1772557144375253800,0.555253662109375,-0.19170475006103516,-0.05635726451873779,0.04739180952310562
1772557144395150800,0.57515087890625,-0.08395767211914062,0.034267544746398926,-0.010643001645803452
1772557144415047200,0.595047119140625,-0.06324100494384766,0.038173675537109375,-0.014084674417972565
1772557144434944300,0.6149443359375,0.13690757751464844,0.07102680206298828,-0.037896573543548584
1772557144454842000,0.634842041015625,0.21987056732177734,0.07673311233520508,-0.07453325390815735
1772557144474739200,0.6547392578125,0.013776779174804688,0.06847786903381348,-0.008580625057220459
1772557144494635500,0.674635498046875,-0.08833122253417969,0.0006691217422485352,0.06712402403354645
1772557144514532600,0.69453271484375,-0.04829216003417969,-0.03689396381378174,0.053766634315252304
1772557144534430500,0.714430419921875,-0.051383018493652344,0.006364107131958008,0.022469446063041687
1772557144554327600,0.73432763671875,-0.04516315460205078,0.006776213645935059,0.03138793259859085
1772557144574224000,0.754223876953125,0.09093952178955078,-0.056206583976745605,0.04221193492412567
1772557144594121000,0.774120849609375,0.1911296844482422,0.01590597629547119,-0.027012599632143974
1772557144614018800,0.794018798828125,0.12668418884277344,0.06363224983215332,-0.0393073707818985
1772557144633916200,0.813916259765625,0.0880279541015625,-0.013293623924255371,-0.03846998140215874
1772557144653812200,0.833812255859375,-0.023375511169433594,0.02360379695892334,-0.05689972639083862
1772557144673709300,0.853709228515625,-0.14574909210205078,0.013020753860473633,-0.03324524313211441
1772557144693607400,0.873607421875,-0.24673175811767578,-0.022872209548950195,0.00021878071129322052
1772557144713504500,0.89350439453125,-0.18801116943359375,0.012519240379333496,0.00032853707671165466
1772557144733400600,0.913400634765625,-0.07619380950927734,0.021513819694519043,-0.0061680618673563
1772557144753297700,0.933297607421875,-0.0005693435668945312,-0.020216941833496094,0.00933714210987091
1772557144773195800,0.95319580078125,0.0356903076171875,0.02641618251800537,0.014421844854950905
1772557144793092900,0.9730927734375,0.06636238098144531,0.04235219955444336,0.019147420302033424
1772557144812989000,0.992989013671875,0.07337570190429688,0.022600769996643066,0.02402920089662075
1772557144832886300,1.01288623046875,0.1129465103149414,-0.008057713508605957,0.022965649142861366
1772557144852784000,1.0327841796875,0.06821727752685547,0.01619720458984375,-0.010527975857257843
1772557144872681200,1.05268115234375,0.00659942626953125,0.020443201065063477,0.007436186075210571
1772557144892577500,1.07257763671875,-0.03916740417480469,0.006505727767944336,0.015275837853550911
1772557144912474600,1.092474609375,-0.10236644744873047,0.014083623886108398,0.04274669289588928
1772557144932372500,1.11237255859375,-0.1039419174194336,0.01100146770477295,0.023081952705979347
1772557144952269600,1.13226953125,-0.0691213607788086,0.011721372604370117,-0.006104236468672752
1772557144972166000,1.152165771484375,-0.017075538635253906,-0.0007681846618652344,0.01217576302587986
1772557144992063000,1.17206298828125,0.024193763732910156,0.004508614540100098,0.025765856727957726
1772557145011960800,1.1919609375,-0.009967803955078125,0.005217432975769043,0.016358518972992897
1772557145031858000,1.21185791015625,-0.03381538391113281,0.04337501525878906,-0.006341336295008659
1772557145051754200,1.231754150390625,0.00327301025390625,0.02012050151824951,-0.0009904447942972183
1772557145071651300,1.2516513671875,-0.00713348388671875,0.00689387321472168,0.02287723869085312
1772557145091549200,1.271549072265625,-0.017391204833984375,0.01839625835418701,0.04571811482310295
1772557145111446300,1.2914462890625,-0.01813030242919922,0.006848692893981934,0.04497913643717766
1772557145131342600,1.311342529296875,0.06020832061767578,-0.00662684440612793,0.022099558264017105
1772557145151239700,1.33123974609375,0.06240367889404297,0.005326986312866211,0.00499170646071434
1772557145171137500,1.351137451171875,0.013601303100585938,0.007863044738769531,0.035913482308387756
1772557145191034600,1.37103466796875,0.044948577880859375,-0.007493734359741211,-0.02316931076347828
1772557145210931000,1.390930908203125,0.11237335205078125,0.037105441093444824,-0.03225374221801758
1772557145230828000,1.410828125,-0.0493316650390625,0.044367313385009766,-0.018911536782979965
1772557145250726000,1.430725830078125,-0.09972286224365234,0.007908940315246582,-0.0011890586465597153
1772557145270623000,1.450623046875,-0.15802955627441406,0.03951716423034668,0.027668895199894905
1772557145290519300,1.470519287109375,-0.10371112823486328,0.05827188491821289,-0.008818591013550758
1772557145310416400,1.49041650390625,-0.028535842895507812,0.03753960132598877,-0.03226073086261749
1772557145330314200,1.510314208984375,-0.05342292785644531,0.0385512113571167,-0.013596205040812492
1772557145350211300,1.53021142578125,0.03368854522705078,0.020331501960754395,0.037330545485019684
1772557145370107600,1.550107666015625,0.16478347778320312,0.040651798248291016,-0.0028028544038534164
1772557145409902800,1.58990283203125,0.07016563415527344,-0.029546260833740234,0.08700330555438995
1772557145429799700,1.609799560546875,0.08570289611816406,0.026207447052001953,0.033954136073589325
1772557145449696000,1.629696044921875,0.05464935302734375,0.04193401336669922,-0.0134345144033432
1772557145469593000,1.649593017578125,-0.03558349609375,0.03909504413604736,-0.004112470895051956
1772557145489491200,1.6694912109375,0.02507305145263672,0.018771886825561523,-0.05755459889769554
1772557145509388300,1.68938818359375,-0.20377635955810547,-0.04758012294769287,0.013070523738861084
1772557145529284400,1.709284423828125,-0.0969390869140625,0.015732288360595703,0.003161925822496414
1772557145549181700,1.729181640625,0.03891563415527344,0.015633583068847656,0.00792607106268406
1772557145569079600,1.74907958984375,0.05485248565673828,0.06480300426483154,-0.0016520433127880096
1772557145588976600,1.7689765625,0.0007610321044921875,0.0158846378326416,-0.015928078442811966
1772557145608872700,1.788872802734375,0.13373947143554688,-0.005038261413574219,-0.008882889524102211
1772557145628770000,1.80877001953125,0.05920982360839844,0.004104018211364746,0.02175324782729149
1772557145648668000,1.82866796875,0.015250205993652344,-0.026156306266784668,0.067713662981987
1772557145668565000,1.84856494140625,0.014429092407226562,-0.009377717971801758,0.034142233431339264
1772557145688461300,1.86846142578125,-0.014190673828125,0.03968977928161621,0.0015645939856767654
1772557145708358400,1.8883583984375,0.013759613037109375,0.07254648208618164,0.006580999121069908
1772557145728256300,1.90825634765625,0.10127830505371094,0.09273135662078857,0.0049452343955636024
1772557145748153300,1.9281533203125,0.03347015380859375,0.03197157382965088,0.02167276293039322
1772557145768049700,1.948049560546875,-0.09705924987792969,-0.05312490463256836,-0.0025569936260581017
1772557145787946800,1.96794677734375,-0.12666606903076172,-0.03451740741729736,-0.002456365618854761
1772557145807844600,1.9878447265625,-0.07714176177978516,-0.02715742588043213,0.006050927564501762
1772557145827741700,2.00774169921875,0.040198326110839844,0.021125316619873047,0.014130445197224617
1772557145847638000,2.027637939453125,0.08932781219482422,0.041648268699645996,-0.014746826142072678
1772557145867535000,2.04753515625,0.05867481231689453,0.03972947597503662,-0.013778554275631905
1772557145887433000,2.067432861328125,0.0663747787475586,0.003399372100830078,-0.0035902331583201885
1772557145907330000,2.087330078125,0.032256126403808594,0.018702268600463867,-0.02219574712216854
1772557145927226400,2.107226318359375,0.003864288330078125,0.01984870433807373,0.005811738781630993
1772557145947123500,2.12712353515625,-0.009629249572753906,0.0019876956939697266,0.02020569145679474
1772557145967021300,2.147021240234375,-0.04580116271972656,-0.006025552749633789,0.020241418853402138
1772557145986918400,2.16691845703125,-0.053336143493652344,0.0021997690200805664,0.010594728402793407
1772557146006814700,2.186814697265625,-0.08414649963378906,0.012707352638244629,0.01997031271457672
1772557146026711800,2.2067119140625,-0.049201011657714844,0.027722835540771484,0.039447277784347534
1772557146046610000,2.22660986328125,0.07283782958984375,0.012157797813415527,-0.0018287478014826775
1772557146066507000,2.246507080078125,0.07096290588378906,0.035958170890808105,-0.0008266735821962357
1772557146086403000,2.266403076171875,0.03236103057861328,0.062195777893066406,0.009285475127398968
1772557146106300200,2.286300048828125,0.018143653869628906,0.013772726058959961,0.00009075552225112915
1772557146126198300,2.3061982421875,-0.03271675109863281,0.03705298900604248,-0.018979758024215698
1772557146146095400,2.326095458984375,-0.09594058990478516,0.04221534729003906,-0.0041025420650839806
1772557146165991400,2.345991455078125,-0.08325862884521484,-0.025417327880859375,0.04343150928616524
1772557146185888800,2.365888671875,-0.0017910003662109375,0.00751495361328125,0.010345782153308392
1772557146205786600,2.38578662109375,0.026146888732910156,0.043511390686035156,-0.008455328643321991
1772557146225683700,2.40568359375,-0.011538505554199219,0.022330164909362793,0.01573893427848816
1772557146245580000,2.425580078125,-0.010920524597167969,-0.02613377571105957,0.02131882682442665
1772557146265477000,2.44547705078125,-0.010470390319824219,0.006590008735656738,-0.01060227956622839
1772557146285375000,2.465375,-0.019435882568359375,0.06690716743469238,-0.009688512422144413
1772557146305272000,2.48527197265625,0.04147148132324219,0.07779133319854736,-0.01000333484262228
1772557146325168400,2.50516845703125,0.06356143951416016,0.05916321277618408,-0.012360842898488045
1772557146345065500,2.5250654296875,-0.07255744934082031,0.03769123554229736,0.04603766277432442
1772557146364963300,2.54496337890625,-0.15377044677734375,0.001682281494140625,0.07207609713077545
1772557146384860400,2.5648603515625,-0.07532215118408203,-0.05879485607147217,0.06111932545900345
1772557146404756700,2.5847568359375,0.05132865905761719,-0.019644618034362793,-0.016179503872990608
1772557146424653800,2.60465380859375,0.01632404327392578,0.028382301330566406,-0.013994415290653706
1772557146444551700,2.6245517578125,-0.09655570983886719,0.04498004913330078,0.016386236995458603
1772557146464448800,2.64444873046875,-0.15514373779296875,0.01708221435546875,0.024712571874260902
1772557146484345000,2.664344970703125,-0.017289161682128906,0.007454037666320801,0.02531382255256176
1772557146504242200,2.6842421875,0.16758441925048828,0.044394850730895996,0.002263390924781561
1772557146524140000,2.70414013671875,0.18965721130371094,0.09443295001983643,-0.007909263484179974
1772557146544037000,2.724037109375,0.08648681640625,0.06160402297973633,0.018801137804985046
1772557146563933400,2.743933349609375,0.024019241333007812,0.005111336708068848,0.05887671932578087
1772557146583830500,2.76383056640625,-0.017751693725585938,0.009943604469299316,0.028493814170360565
1772557146603728400,2.783728271484375,-0.053684234619140625,0.04815983772277832,0.018020737916231155
1772557146623625500,2.80362548828125,-0.0841217041015625,0.022428393363952637,0.01777344010770321
1772557146643521800,2.823521728515625,-0.06757545471191406,0.013291716575622559,-0.024442575871944427
1772557146663419000,2.8434189453125,-0.05187034606933594,0.03870081901550293,-0.0473572313785553
1772557146683317000,2.86331689453125,0.00024700164794921875,0.017466187477111816,-0.019854266196489334
1772557146703214000,2.883214111328125,-0.009510993957519531,0.033948540687561035,0.026201920583844185
1772557146723110100,2.903110107421875,0.046111106872558594,0.011014103889465332,0.025963857769966125
1772557146743007200,2.92300732421875,0.11423015594482422,0.008955955505371094,-0.011434605345129967
1772557146762905300,2.9429052734375,0.050731658935546875,0.02430903911590576,-0.02472439967095852
1772557146782802400,2.962802490234375,-0.010613441467285156,-0.0027168989181518555,-0.018907563760876656
1772557146802698500,2.982698486328125,-0.05610942840576172,-0.028377056121826172,0.020222803577780724
1772557146822595800,3.002595947265625,-0.0029754638671875,-0.02056598663330078,-0.007218512240797281
1772557146842493700,3.02249365234375,-0.021187782287597656,0.002024054527282715,-0.006220782641321421
1772557146862390800,3.042390869140625,-0.07602214813232422,-0.011754989624023438,0.02816527895629406
1772557146882287000,3.062287109375,0.02366924285888672,-0.01142871379852295,0.009161029011011124
1772557146902184200,3.08218408203125,0.02285480499267578,0.02612769603729248,0.017190735787153244
1772557146922082000,3.10208203125,-0.010352134704589844,0.04878580570220947,0.03477931022644043
1772557146941979100,3.121979248046875,-0.03327369689941406,-0.02599644660949707,0.05262504145503044
1772557146961875500,3.14187548828125,-0.051025390625,-0.0182497501373291,0.04731912165880203
1772557146981772500,3.1617724609375,-0.021959304809570312,0.007975459098815918,0.01459156721830368
1772557147001670400,3.18167041015625,0.08048439025878906,0.021985650062561035,-0.013225228525698185
1772557147021567500,3.2015673828125,0.11973953247070312,-0.008428215980529785,-0.008391679264605045
1772557147041463800,3.2214638671875,0.03755474090576172,-0.011000871658325195,0.0011026477441191673
1772557147061361000,3.24136083984375,-0.01879596710205078,-0.03638625144958496,-0.0029374193400144577
1772557147081258800,3.2612587890625,-0.017754554748535156,0.013093233108520508,-0.034941915422677994
1772557147101155800,3.28115576171875,-0.0074939727783203125,0.005410671234130859,-0.0012242146767675877
1772557147121052200,3.30105224609375,-0.016265869140625,0.02227640151977539,0.012559011578559875
1772557147140949200,3.32094921875,-0.025002479553222656,0.012448787689208984,0.021024299785494804
1772557147160847400,3.340847412109375,-0.05672645568847656,-0.010001540184020996,0.03421328216791153
1772557147180744400,3.360744384765625,-0.027364730834960938,-0.026381611824035645,0.042679183185100555
1772557147200640500,3.380640625,0.005756378173828125,-0.0336606502532959,0.04704323410987854
1772557147220537600,3.40053759765625,0.019232749938964844,0.005796551704406738,0.018842026591300964
1772557147240435700,3.420435791015625,-0.00016021728515625,0.016414999961853027,-0.013155322521924973
1772557147260332800,3.440332763671875,0.05525970458984375,0.02575099468231201,-0.021994248032569885
1772557147280228900,3.460228759765625,0.021117210388183594,0.04286801815032959,-0.0077869039960205555
1772557147300126200,3.480126220703125,-0.007258415222167969,0.003900766372680664,0.011037148535251617
1772557147320024000,3.500024169921875,0.0022449493408203125,-0.05180788040161133,-0.003075696062296629
1772557147339921200,3.519921142578125,-0.016396522521972656,0.010457992553710938,0.015432699583470821
1772557147359817500,3.5398173828125,-0.05769538879394531,0.016063570976257324,0.02017909288406372
1772557147379714600,3.559714599609375,-0.009648323059082031,0.011765003204345703,0.024840600788593292
1772557147399612400,3.5796123046875,0.036907196044921875,0.016165494918823242,0.010182369500398636
1772557147419509500,3.599509521484375,-0.010646820068359375,0.057660818099975586,0.009781081229448318
1772557147439405800,3.61940576171875,0.0034132003784179688,0.02907848358154297,-0.009453709237277508
1772557147459303000,3.639302978515625,-0.034102439880371094,-0.038793087005615234,0.014553356915712357
1772557147479200800,3.65920068359375,0.003795623779296875,0.005695462226867676,-0.012858062982559204
1772557147499097900,3.679097900390625,0.06840896606445312,0.04268205165863037,-0.012833090499043465
1772557147518994200,3.698994140625,0.015253067016601562,0.07357800006866455,0.02366209588944912
1772557147538891300,3.718891357421875,0.0055408477783203125,0.04769778251647949,0.0361519493162632
1772557147558789000,3.7387890625,-0.013101577758789062,-0.005077958106994629,0.044051818549633026
1772557147578686200,3.758686279296875,-0.012727737426757812,-0.023015499114990234,0.024005107581615448
1772557147598582500,3.77858251953125,-0.04027080535888672,0.002208232879638672,0.028294920921325684
1772557147618479600,3.798479736328125,-0.015972137451171875,-0.024528980255126953,0.023922661319375038
1772557147638377700,3.818377685546875,0.016880035400390625,0.01832115650177002,-0.0085985716432333
1772557147658274800,3.83827490234375,0.020771026611328125,0.028057217597961426,-0.027623940259218216
1772557147678171000,3.8581708984375,-0.031017303466796875,0.056206703186035156,-0.017903825268149376
1772557147698068200,3.878068115234375,0.0532989501953125,0.012632608413696289,0.014818467199802399
1772557147717966000,3.897966064453125,0.0193328857421875,0.03874194622039795,-0.00008024461567401886
1772557147737863200,3.91786328125,0.014222145080566406,0.036457180976867676,-0.010394350625574589
1772557147757759500,3.937759521484375,-0.04630851745605469,0.04396522045135498,0.0268622487783432
1772557147777656600,3.957656494140625,-0.021587371826171875,-0.004058241844177246,0.012686154805123806
1772557147797554400,3.977554443359375,-0.011534690856933594,0.00017404556274414062,0.023042112588882446
1772557147817451500,3.997451416015625,0.044556617736816406,0.05445683002471924,0.004989949986338615
1772557147837347800,4.017347900390625,0.07142925262451172,0.025731444358825684,0.019225317984819412
1772557147857245000,4.037244873046875,0.03278923034667969,0.020163893699645996,0.004801429808139801
1772557147877142800,4.057142822265625,-0.032317161560058594,0.014780998229980469,0.019385844469070435
1772557147897040000,4.077039794921875,-0.002838134765625,0.010274291038513184,0.010000531561672688
1772557147916936200,4.096936279296875,-0.04858112335205078,0.007310986518859863,0.00979070644825697
1772557147936833300,4.116833251953125,-0.1070547103881836,0.02527320384979248,0.019499298185110092
1772557147956731100,4.136731201171875,-0.05262565612792969,0.006092071533203125,0.024295443668961525
1772557147976628200,4.156628173828125,-0.013965606689453125,-0.0027332305908203125,0.024267930537462234
1772557147996524500,4.176524658203125,-0.018341064453125,0.026440978050231934,-0.012805226258933544
1772557148016421600,4.196421630859375,0.02831554412841797,0.040764808654785156,-0.02601350098848343
1772557148036319500,4.216319580078125,0.008803367614746094,0.025925755500793457,-0.001967090182006359
1772557148076113000,4.25611279296875,-0.005015373229980469,0.0012743473052978516,0.00769683625549078
1772557148096010200,4.27601025390625,0.01829242706298828,-0.008086681365966797,-0.006082366220653057
1772557148115908000,4.295908203125,-0.005585670471191406,0.043932557106018066,-0.015974026173353195
1772557148135805200,4.31580517578125,-0.03814506530761719,0.04009699821472168,0.029475916177034378
1772557148155701200,4.335701171875,-0.018731117248535156,0.05026662349700928,0.0371730774641037
1772557148175598600,4.3555986328125,-0.004330635070800781,0.026088953018188477,0.04588619992136955
1772557148195496400,4.375496337890625,0.014403343200683594,0.010808229446411133,0.022038647904992104
1772557148215393500,4.3953935546875,0.013933181762695312,0.028884410858154297,-0.00132092647254467
1772557148235289900,4.415289794921875,0.008814811706542969,0.004955768585205078,-0.0103303799405694
1772557148255187000,4.43518701171875,0.00864410400390625,-0.005224466323852539,-0.005468221381306648
1772557148275084800,4.455084716796875,0.027172088623046875,0.01615738868713379,-0.0010376982390880585
1772557148294982000,4.47498193359375,0.04068470001220703,0.016929149627685547,-0.0018073879182338715
1772557148314878200,4.494878173828125,0.021477699279785156,0.0493617057800293,0.029831701889634132
1772557148334775300,4.514775390625,-0.038949012756347656,0.04047131538391113,-0.009283283725380898
1772557148354673200,4.534673095703125,-0.09322643280029297,0.034894704818725586,0.0035231560468673706
1772557148374570200,4.5545703125,-0.03485584259033203,0.02141129970550537,-0.007653549313545227
1772557148394466600,4.574466552734375,-0.02473163604736328,0.017860054969787598,0.04268581420183182
1772557148414363600,4.59436376953125,-0.010284423828125,0.009568452835083008,0.028011072427034378
1772557148434261500,4.614261474609375,0.05942249298095703,0.018666625022888184,-0.005412846803665161
1772557148454158600,4.63415869140625,0.03921222686767578,0.020980000495910645,0.0043386612087488174
1772557148474055000,4.654054931640625,0.02908039093017578,0.02228868007659912,0.013959340751171112
1772557148493952000,4.673951904296875,-0.022386550903320312,0.0006554126739501953,0.00957503356039524
1772557148513850000,4.69385009765625,-0.030655860900878906,0.013056039810180664,0.0008284579962491989
1772557148533747200,4.713747314453125,-0.024806976318359375,-0.0024819374084472656,0.010683776810765266
1772557148553643300,4.733643310546875,-0.0007257461547851562,0.0060912370681762695,0.006214547902345657
1772557148573540600,4.75354052734375,-0.014532089233398438,0.0472254753112793,0.006288494914770126
1772557148593438500,4.7734384765625,-0.0279541015625,-0.0050705671310424805,0.006166255101561546
1772557148613335600,4.79333544921875,-0.022538185119628906,-0.022544264793395996,0.02497822977602482
1772557148633231600,4.813231689453125,-0.017343521118164062,0.016309738159179688,-0.012118564918637276
1772557148653129000,4.83312890625,0.015436172485351562,0.0076073408126831055,0.012392740696668625
1772557148673026800,4.85302685546875,0.024145126342773438,0.02139914035797119,0.012416362762451172
1772557148692924000,4.872923828125,0.00018215179443359375,-0.011529088020324707,0.012130990624427795
1772557148712820200,4.8928203125,-0.050968170166015625,0.03205084800720215,-0.006261643022298813
1772557148732717300,4.91271728515625,-0.04050254821777344,-0.030832409858703613,0.008417917415499687
1772557148752615200,4.932615234375,0.015838623046875,0.042769551277160645,0.008498197421431541
1772557148772512300,4.95251220703125,0.03344535827636719,0.025094985961914062,0.022184474393725395
1772557148792408600,4.97240869140625,0.032039642333984375,0.039928317070007324,0.039150968194007874
1772557148812305700,4.9923056640625,-0.024982452392578125,0.008932232856750488,0.027714747935533524
1772557148832203500,5.01220361328125,-0.03407001495361328,-0.0011363029479980469,0.035083405673503876
1772557148852100600,5.0321005859375,0.007849693298339844,-0.06060159206390381,0.04613050818443298
1772557148871997000,5.051996826171875,0.0298004150390625,-0.020476341247558594,0.018593989312648773
1772557148891894000,5.07189404296875,0.01879119873046875,-0.00575101375579834,0.039116453379392624
1772557148911791900,5.0917919921875,0.0779886245727539,0.028826594352722168,0.027340535074472427
1772557148931689000,5.11168896484375,0.03854179382324219,0.026848912239074707,0.0356966033577919
1772557148951585300,5.131585205078125,0.056151390075683594,0.051299214363098145,0.0019458085298538208
1772557148971482400,5.151482421875,0.06400489807128906,0.08835029602050781,-0.04189957678318024
1772557148991380500,5.17138037109375,-0.007152557373046875,0.05084872245788574,-0.02086450532078743
1772557149011277600,5.191277587890625,-0.09012794494628906,-0.0020481348037719727,0.033868491649627686
1772557149031173600,5.211173583984375,-0.13367462158203125,-0.01870894432067871,0.01920512318611145
1772557149051071000,5.231071044921875,-0.0464630126953125,-0.01954340934753418,-0.004260346293449402
1772557149070968800,5.25096875,0.0147552490234375,-0.002075791358947754,-0.009675521403551102
1772557149090866000,5.270865966796875,0.04633140563964844,0.009254097938537598,0.0119548961520195
1772557149110762000,5.290761962890625,0.0026874542236328125,0.030385494232177734,0.023880556225776672
1772557149130659300,5.310659423828125,-0.039580345153808594,0.05127513408660889,0.036373525857925415
1772557149150557200,5.33055712890625,0.049353599548339844,0.03745996952056885,0.016066890209913254
1772557149170454300,5.350454345703125,0.08958721160888672,0.034731268882751465,0.0006738677620887756
1772557149190350600,5.3703505859375,0.017676353454589844,0.03995335102081299,-0.004758033901453018
1772557149210247700,5.39024755859375,-0.04266548156738281,0.04546916484832764,-0.027463454753160477
1772557149230145500,5.4101455078125,0.005482673645019531,0.050344228744506836,-0.04057867452502251
1772557149250042600,5.430042724609375,-0.008111000061035156,0.02268052101135254,-0.021293696016073227
1772557149269939000,5.44993896484375,-0.012187957763671875,0.001727461814880371,-0.030445802956819534
1772557149289836000,5.4698359375,-0.03482246398925781,0.01501619815826416,-0.03466666489839554
1772557149309734000,5.48973388671875,-0.0012989044189453125,0.033187150955200195,-0.03466048091650009
1772557149329631000,5.509630859375,-0.04761791229248047,0.02346479892730713,0.012151610106229782
1772557149349527300,5.52952734375,-0.036808013916015625,-0.009527087211608887,0.030536890029907227
1772557149369424400,5.54942431640625,-0.007931709289550781,-0.03632783889770508,-0.0021517574787139893
1772557149389322200,5.569322265625,-0.058854103088378906,-0.014813780784606934,-0.010387811809778214
1772557149409219300,5.58921923828125,-0.034210205078125,0.01616513729095459,0.004938054829835892
1772557149429115600,5.60911572265625,-0.005982398986816406,0.0382542610168457,-0.009044013917446136
1772557149449012700,5.6290126953125,0.030599594116210938,0.02699136734008789,0.01818554475903511
1772557149468910800,5.648910888671875,0.07107830047607422,0.0038301944732666016,0.04469553008675575
1772557149488808000,5.668807861328125,0.02249622344970703,-0.0012195110321044922,0.04780546575784683
1772557149508704000,5.6887041015625,-0.06163311004638672,-0.03755819797515869,0.0335426926612854
1772557149528601000,5.70860107421875,-0.04603385925292969,-0.02503490447998047,0.01080988347530365
1772557149548499200,5.728499267578125,0.0059490203857421875,-0.002979278564453125,-0.003110729157924652
1772557149568396300,5.748396240234375,0.037735939025878906,0.03199267387390137,-0.031059209257364273
1772557149588292400,5.768292236328125,0.013094902038574219,0.05561995506286621,-0.006529808044433594
1772557149608189700,5.788189697265625,0.0034084320068359375,0.06758284568786621,0.008857961744070053
1772557149628087600,5.808087646484375,0.026468276977539062,0.000270843505859375,-0.004488222301006317
1772557149647984600,5.827984619140625,-0.011523246765136719,0.03328061103820801,-0.018355317413806915
1772557149667881000,5.847880859375,-0.053104400634765625,0.024947404861450195,0.024449601769447327
1772557149687778000,5.867778076171875,-0.01465606689453125,0.003013134002685547,0.04755533114075661
1772557149727573000,5.907572998046875,-0.008670806884765625,0.012569427490234375,0.042161714285612106
1772557149747469300,5.92746923828125,-0.004158973693847656,0.03314101696014404,0.03248067945241928
1772557149767366400,5.947366455078125,0.00942230224609375,0.030129671096801758,0.02215706557035446
1772557149787264300,5.96726416015625,0.03184795379638672,0.03161430358886719,0.029484599828720093
1772557149807161300,5.987161376953125,0.0305023193359375,0.013846158981323242,0.04659053310751915
1772557149827057700,6.0070576171875,-0.00766754150390625,-0.004263401031494141,0.041536521166563034
1772557149846954800,6.026954833984375,0.011097908020019531,0.05131888389587402,-0.00032095611095428467
1772557149866852600,6.0468525390625,0.03394603729248047,0.09071135520935059,-0.033071838319301605
1772557149886749700,6.066749755859375,-0.041332244873046875,0.05153799057006836,-0.0013209767639636993
1772557149906646000,6.08664599609375,-0.02660655975341797,-0.01616644859313965,0.02400297299027443
1772557149926543000,6.106543212890625,-0.021875381469726562,-0.0059778690338134766,0.020176947116851807
1772557149946441000,6.12644091796875,0.038292884826660156,-0.019732356071472168,0.04834798723459244
1772557149966338000,6.146338134765625,0.0645914077758789,-0.008528470993041992,0.06666827946901321
1772557149986234400,6.166234375,0.07669258117675781,0.0265730619430542,0.014520950615406036
1772557150006131500,6.18613134765625,-0.013316154479980469,0.027660727500915527,-0.03483694791793823
1772557150026029600,6.206029541015625,-0.10063552856445312,0.012075185775756836,-0.05311845988035202
1772557150045926400,6.225926513671875,-0.051186561584472656,0.022015094757080078,-0.0706586167216301
1772557150065822700,6.24582275390625,0.019713401794433594,0.06888151168823242,-0.09789542853832245
1772557150085719800,6.2657197265625,0.060647010803222656,0.03462255001068115,-0.041836075484752655
1772557150105618000,6.285617919921875,0.012422561645507812,0.04707229137420654,-0.0006329044699668884
1772557150125515000,6.305514892578125,-0.029508590698242188,0.021628260612487793,0.022660762071609497
1772557150145411000,6.3254111328125,0.008676528930664062,-0.021946072578430176,0.0453631728887558
1772557150165308400,6.345308349609375,0.013245582580566406,-0.03192484378814697,0.029984034597873688
1772557150185206300,6.365206298828125,-0.03800010681152344,-0.012885689735412598,0.024601958692073822
1772557150205103400,6.385103271484375,-0.022955894470214844,-0.011824727058410645,0.028419367969036102
1772557150224999400,6.40499951171875,-0.05494117736816406,0.00007808208465576172,0.014533571898937225
1772557150244896800,6.424896728515625,-0.04430580139160156,0.012044072151184082,0.015759333968162537
1772557150264794600,6.444794677734375,-0.0015716552734375,0.03239905834197998,0.00838809460401535
1772557150284691700,6.464691650390625,0.07235050201416016,0.036806702613830566,-0.004561074078083038
1772557150304588000,6.484588134765625,0.07002067565917969,0.03968226909637451,-0.00890263170003891
1772557150324485000,6.504485107421875,0.026284217834472656,-0.009352564811706543,-0.008742712438106537
1772557150344383000,6.524383056640625,-0.043979644775390625,-0.022978544235229492,0.019902318716049194
1772557150364280000,6.544280029296875,-0.03803730010986328,0.015665650367736816,0.006653912365436554
1772557150384176400,6.56417626953125,-0.05090904235839844,0.012082934379577637,0.017209745943546295
1772557150404073500,6.584073486328125,-0.035701751708984375,0.03244638442993164,0.02232329547405243
1772557150423971300,6.603971435546875,0.02529621124267578,0.03802037239074707,0.004135787487030029
1772557150443868400,6.623868408203125,0.019570350646972656,0.03369748592376709,0.004948362708091736
1772557150463764700,6.6437646484375,0.023433685302734375,0.014713406562805176,0.010323107242584229
1772557150483661800,6.663661865234375,0.041306495666503906,0.03174781799316406,0.006229497492313385
1772557150503559700,6.6835595703125,0.0032558441162109375,0.028548598289489746,0.025402620434761047
1772557150523456800,6.703456787109375,-0.010506629943847656,-0.0016039609909057617,0.039309851825237274
1772557150543353000,6.72335302734375,-0.033318519592285156,0.040267348289489746,0.019868940114974976
1772557150563250200,6.743250244140625,-0.037017822265625,0.016904354095458984,0.02910192310810089
1772557150583148000,6.76314794921875,-0.017427444458007812,-0.019795775413513184,0.04322889447212219
1772557150603045000,6.783045166015625,0.0620880126953125,0.002077937126159668,0.03938306123018265
1772557150622941400,6.80294140625,0.07915592193603516,0.030385255813598633,0.0067479610443115234
1772557150642838500,6.822838623046875,-0.02021312713623047,0.04989051818847656,0.011475719511508942
1772557150662736400,6.842736328125,-0.08896541595458984,0.0021333694458007812,0.02128550410270691
1772557150682633500,6.862633544921875,-0.12349796295166016,-0.008875370025634766,0.04583613574504852
1772557150702529800,6.88252978515625,-0.07390785217285156,0.02397298812866211,0.014517523348331451
1772557150722427000,6.902427001953125,0.06194114685058594,0.041854143142700195,0.009994186460971832
1772557150742324700,6.92232470703125,0.0037813186645507812,0.0626150369644165,0.009366251528263092
1772557150762221800,6.942221923828125,0.049671173095703125,0.04821896553039551,-0.014751546084880829
1772557150782118100,6.9621181640625,0.010906219482421875,0.014875173568725586,-0.005329661071300507
1772557150802015200,6.98201513671875,0.029052734375,0.014332890510559082,0.004400394856929779
1772557150821913000,7.0019130859375,0.05129528045654297,0.01797032356262207,-0.014182910323143005
1772557150841810200,7.02181005859375,-0.0012187957763671875,-0.006275534629821777,-0.02301565557718277
1772557150861706500,7.04170654296875,-0.01956462860107422,0.03482198715209961,-0.022106759250164032
1772557150881603600,7.061603515625,-0.009611129760742188,0.01487588882446289,-0.012710005044937134
1772557150901501700,7.081501708984375,-0.051064491271972656,0.024510622024536133,0.005895011126995087
1772557150921398800,7.101398681640625,-0.031113624572753906,0.029892683029174805,0.02484564483165741
1772557150941294800,7.121294921875,-0.0026102066040039062,0.026071667671203613,0.01964409649372101
1772557150961192000,7.14119189453125,0.029608726501464844,0.0036400556564331055,0.02344118058681488
1772557150981089800,7.16108984375,-0.0039014816284179688,-0.01411890983581543,0.055444180965423584
1772557151000987100,7.180987060546875,0.005373954772949219,-0.017641305923461914,0.040388405323028564
1772557151020883200,7.20088330078125,-0.018079757690429688,0.011566877365112305,0.03072982281446457
1772557151040780300,7.2207802734375,-0.01769733428955078,-0.005997180938720703,0.03554069995880127
1772557151060678400,7.240678466796875,-0.017473220825195312,-0.026673078536987305,0.01682845503091812
1772557151080575500,7.260575439453125,-0.03131866455078125,0.0007599592208862305,0.008028917014598846
1772557151100471600,7.280471435546875,-0.03096771240234375,0.005073070526123047,0.031746797263622284
1772557151120368600,7.30036865234375,0.001861572265625,0.027047038078308105,0.02282840758562088
1772557151140266800,7.320266845703125,0.033820152282714844,0.05152583122253418,0.009275645017623901
1772557151160163800,7.340163818359375,0.023115158081054688,0.04720139503479004,-0.008720166981220245
1772557151180060000,7.360059814453125,0.026650428771972656,0.024516940116882324,0.00580238550901413
1772557151199957000,7.37995703125,0.039467811584472656,0.02016627788543701,0.010319776833057404
1772557151219855000,7.399855224609375,0.04275226593017578,0.01965951919555664,0.005397796630859375
1772557151239752200,7.419752197265625,0.027675628662109375,0.02679741382598877,-0.0037905722856521606
1772557151259648300,7.439648193359375,0.04108142852783203,0.013797760009765625,-0.003383740782737732
1772557151279545600,7.459545654296875,-0.043259620666503906,0.025290608406066895,-0.007151879370212555
1772557151299443500,7.479443359375,-0.03711128234863281,0.023917794227600098,0.003047078847885132
1772557151319340500,7.499340576171875,-0.026651382446289062,-0.004465937614440918,-0.010530583560466766
1772557151339236600,7.519236572265625,-0.025938034057617188,0.02454507350921631,-0.0009045824408531189
1772557151359133700,7.5391337890625,-0.034687042236328125,-0.0017632246017456055,0.008632868528366089
1772557151379031800,7.55903173828125,-0.01997852325439453,0.009581923484802246,-0.00041953474283218384
1772557151398929000,7.578928955078125,0.040581703186035156,0.015456795692443848,-0.010062061250209808
1772557151418825000,7.598824951171875,-0.025789260864257812,0.01188194751739502,0.0512065663933754
1772557151438722300,7.618722412109375,-0.02529621124267578,-0.04177045822143555,0.04651052504777908
1772557151458620200,7.6386201171875,-0.0017986297607421875,-0.018924832344055176,0.028202325105667114
1772557151478517200,7.658517333984375,0.0764017105102539,-0.04749095439910889,0.014092087745666504
1772557151498413300,7.678413330078125,-0.03734111785888672,-0.017275333404541016,0.04644209146499634
1772557151518310700,7.698310546875,-0.5086841583251953,0.05220162868499756,-0.03885161504149437
1772557151538208500,7.71820849609375,0.1582794189453125,0.3056067228317261,-0.26794102787971497
1772557151558105600,7.738105712890625,0.29885005950927734,0.09698522090911865,-0.1433713734149933
1772557151578001700,7.758001708984375,0.34342288970947266,-0.0059375762939453125,0.11366751790046692
1772557151597898800,7.777898681640625,0.2031698226928711,-0.08422446250915527,0.2053842842578888
1772557151617796900,7.797796875,-0.15326404571533203,-0.16809296607971191,0.24927186965942383
