time,seconds_elapsed,z,y,x
1772558681557880000,0.067880126953125,-0.0015762916300445795,0.0006730016320943832,-0.0005997756961733103
1772558681577792300,0.087792236328125,0.0006138590397313237,-0.0022397246211767197,0.0006263935356400907
1772558681597704200,0.1077041015625,-0.0019090092973783612,0.0005997759290039539,-0.0014885433483868837
1772558681617616100,0.1276162109375,-0.0015789656899869442,-0.001390686258673668,-0.0022464513313025236
1772558681637528000,0.147528076171875,-0.0006774852517992258,-0.002112121321260929,-0.00039029106847010553
1772558681657440300,0.167440185546875,-0.0007505454123020172,-0.0006894553080201149,-0.00008490909385727718
1772558681677352200,0.187352294921875,-0.001806342974305153,0.0004668543115258217,0.0005044524441473186
1772558681697263900,0.207263916015625,-0.0008192934328690171,-0.000642058439552784,-0.0004708488122560084
1772558681717176000,0.227176025390625,-0.0012462588492780924,0.002108713611960411,0.0016403351910412312
1772558681737088000,0.247087890625,0.0006650680443271995,0.0011273478157818317,0.0009578224271535873
1772558681757000000,0.267,-0.00016925702220760286,0.0004072226583957672,0.001524357357993722
1772558681776912000,0.286911865234375,-0.0008242669282481074,-0.0004947991110384464,0.0006227928097359836
1772558681796824000,0.306823974609375,0.0014060474932193756,-0.0013755038380622864,-0.0006349397590383887
1772558681816736000,0.326736083984375,-0.002242292743176222,-0.0014010574668645859,-0.0011045560240745544
1772558681836648000,0.34664794921875,0.0003169952251482755,-0.001128355972468853,-0.0006988507229834795
1772558681856559900,0.366559814453125,-0.00009838337427936494,-0.0007691388018429279,-0.0005020034732297063
1772558681876473000,0.38647314453125,-0.00019257378880865872,-0.002174987457692623,-0.001489540794864297
1772558681896385000,0.406385009765625,-0.0005714526632800698,-0.0005445978604257107,-0.0007063603843562305
1772558681916297000,0.426296875,-0.0010388779919594526,0.0008277315646409988,0.0003707200230564922
1772558681936209000,0.446208984375,0.0003176589962095022,-0.00246632331982255,0.00009479268192080781
1772558681956121000,0.46612109375,-0.0008744700462557375,0.0014615701511502266,0.0005503100110217929
1772558681976033000,0.486032958984375,-0.0016682667192071676,0.0014243056066334248,0.002977560507133603
1772558681995945000,0.505945068359375,-0.003017440438270569,0.0005238652229309082,-0.0008615169790573418
1772558682015857000,0.52585693359375,-0.00003802197170443833,-0.002705222461372614,-0.0001963106624316424
1772558682035769000,0.54576904296875,-0.0008729730034247041,-0.0006875665858387947,0.0020866605918854475
1772558682055681000,0.565680908203125,-0.00041969394078478217,0.0010562264360487461,-0.002250006888061762
1772558682075593000,0.585593017578125,0.000680023746099323,-0.00013416819274425507,-0.0007303431048057973
1772558682095505000,0.6055048828125,0.0027323660906404257,-0.00004722084850072861,-0.0015145589131861925
1772558682115417000,0.6254169921875,0.0004750940133817494,-0.001077850814908743,-0.0019726331811398268
1772558682135329000,0.6453291015625,-0.0013078816700726748,0.0016894303262233734,0.0011265712091699243
1772558682155241000,0.665240966796875,-0.00009655844769440591,-0.0003371136263012886,-0.0007940264767967165
1772558682175153000,0.68515283203125,-0.0020902229007333517,-0.001777635421603918,-0.0014279716415330768
1772558682195065000,0.705065185546875,-0.0014011997263878584,-0.0018820054829120636,0.0023766672238707542
1772558682214977000,0.72497705078125,0.0004263185546733439,0.0008243094198405743,-0.00022525219537783414
1772558682234889000,0.744888916015625,0.00012883833551313728,-0.0003220164217054844,0.0009950108360499144
1772558682254801200,0.76480126953125,-0.00022078095935285091,0.0010228483006358147,0.0009655416943132877
1772558682274713000,0.784713134765625,0.0005974037339910865,-0.0018866751343011856,-0.0002599137369543314
1772558682294625000,0.804625,0.00022778421407565475,-0.00005976157262921333,0.0016902281204238534
1772558682314537000,0.824536865234375,-0.0007570075104013085,0.0016736583784222603,-0.0015532172983512282
1772558682334449200,0.84444921875,-0.0006474612164311111,-0.0016392888501286507,-0.00010291106445947662
1772558682354361000,0.864361083984375,-0.0014216129202395678,-0.0003789719194173813,0.0026901536621153355
1772558682374273000,0.88427294921875,0.00008394598262384534,0.0015877499245107174,-0.0011405666591599584
1772558682394185000,0.90418505859375,-0.00013273867079988122,-0.0011322656646370888,-0.0008048404124565423
1772558682414097200,0.92409716796875,0.0011039404198527336,0.0017808480188250542,0.0010961658554151654
1772558682434009300,0.94400927734375,0.0016362052410840988,-0.0012215222232043743,-0.0006108593661338091
1772558682453921000,0.963921142578125,0.0003836675314232707,-0.0004781056195497513,0.0015375282382592559
1772558682473833000,0.9838330078125,-0.0004183463752269745,0.007106618490070105,0.0010583271505311131
1772558682493745200,1.0037451171875,-0.0006873256643302739,0.003755828831344843,0.004585683811455965
1772558682513657000,1.023656982421875,0.00019813347898889333,-0.0006269416771829128,-0.0002917722158599645
1772558682533569000,1.043569091796875,-0.00036510772770270705,-0.0071743386797606945,-0.0012653670273721218
1772558682553481200,1.063481201171875,0.002659873105585575,-0.0069168200716376305,-0.0006292196922004223
1772558682573393200,1.08339306640625,-0.000110955152194947,-0.0006045629270374775,-0.002366825705394149
1772558682593305000,1.10330517578125,0.0010258844122290611,-0.0017617172561585903,0.0014353339793160558
1772558682613217000,1.123217041015625,0.0008277282468043268,0.0008644405752420425,0.0015295528573915362
1772558682633129200,1.143129150390625,0.0015600058250129223,-0.002130870707333088,0.00007391138933598995
1772558682653041200,1.163041259765625,0.0007661283598281443,-0.0005448996089398861,-0.0009941508760675788
1772558682672953000,1.182953125,-0.0009407581528648734,0.0028317179530858994,0.0008495995425619185
1772558682692865000,1.202864990234375,0.00012880521535407752,0.001515006646513939,0.0013677392853423953
1772558682712777200,1.222777099609375,0.0017084593418985605,0.00021863076835870743,0.0004100701480638236
1772558682732689200,1.242689208984375,0.0017588324844837189,-0.0010035280138254166,0.0021267503034323454
1772558682752601000,1.26260107421875,0.000029712740797549486,-0.0014996407553553581,0.0014490052126348019
1772558682772513000,1.282512939453125,-0.001132797566242516,-0.0010421201586723328,0.0009021308505907655
1772558682792425200,1.30242529296875,-0.0003680351364891976,-0.00015928642824292183,-0.0014968574978411198
1772558682812337200,1.322337158203125,-0.0002526167663745582,0.0012995707802474499,-0.0009556875447742641
1772558682832249000,1.3422490234375,0.0004479171766433865,0.0019526244141161442,-0.0008400433580391109
1772558682852161300,1.362161376953125,-0.0017046545399352908,0.0006748093292117119,-0.002382978331297636
1772558682872073200,1.3820732421875,0.00015879505372140557,0.00018799211829900742,-0.0006817156681790948
1772558682891985200,1.401985107421875,-0.0009406908648088574,0.0004069036804139614,-0.003030819585546851
1772558682911897000,1.42189697265625,0.0007815066492184997,-0.0008865874260663986,0.0013110869331285357
1772558682931809300,1.441809326171875,0.00013844796922057867,0.002795486245304346,0.0002358745550736785
1772558682951721200,1.46172119140625,0.0013192938640713692,-0.0010160254314541817,-0.001259764307178557
1772558682971633200,1.481633056640625,0.0019797980785369873,-0.001401411835104227,0.0004242737195454538
1772558682991545000,1.501545166015625,0.0018347168806940317,-0.0009968727827072144,-0.002466742414981127
1772558683011457300,1.521457275390625,-0.0009838799014687538,-0.0013848775997757912,-0.003115588566288352
1772558683031369200,1.541369140625,-0.0005763925146311522,0.002042073756456375,-0.0006795647786930203
1772558683051282200,1.5612822265625,-0.0007131507154554129,-0.0013638273812830448,0.0011602673912420869
1772558683071194000,1.581194091796875,0.0003811398637481034,0.0002175336703658104,0.0020742902997881174
1772558683091106300,1.601106201171875,0.000419534626416862,0.0015051723457872868,0.0019874696154147387
1772558683111018200,1.621018310546875,0.0013107304694131017,-0.0021388293243944645,0.002653981326147914
1772558683130930200,1.64093017578125,0.0004391379770822823,-0.00001897057518362999,-0.002094987314194441
1772558683150842000,1.660842041015625,-0.0008032540208660066,-0.0031405272893607616,-0.002629447029903531
1772558683170754300,1.68075439453125,-0.0005254112184047699,0.0009517231956124306,-0.0022206150460988283
1772558683190666200,1.700666259765625,-0.0011251966934651136,-0.0004040319472551346,0.0022680494002997875
1772558683210578200,1.720578125,0.00007393964915536344,0.0010150508023798466,-0.002080748789012432
1772558683230490000,1.740489990234375,0.0006046710768714547,0.00031126802787184715,0.0013400111347436905
1772558683250402300,1.76040234375,-0.00031587400007992983,-0.0034678562078624964,0.0014890057500451803
1772558683270314200,1.780314208984375,0.00006808142643421888,-0.0022546565160155296,0.0015279410872608423
1772558683290226200,1.80022607421875,-0.0015100612072274089,0.0023038294166326523,0.0009570280672051013
1772558683310138000,1.82013818359375,-0.0002938086981885135,-0.0028645703569054604,0.0007736073457635939
1772558683330050300,1.84005029296875,-0.0017770894337445498,-0.00028111180290579796,0.0019952740985900164
1772558683349962200,1.859962158203125,0.0015459520509466529,-0.0014164973981678486,-0.00047730078222230077
1772558683369874200,1.879874267578125,0.00023207762569654733,-0.0013413182459771633,0.0011428717989474535
1772558683389786400,1.899786376953125,0.001512311864644289,0.0015544788911938667,0.0015062751481309533
1772558683409698300,1.9196982421875,0.0022626828867942095,-0.0013738051056861877,0.001327286008745432
1772558683429610200,1.9396103515625,0.0002686389198061079,-0.0015426320023834705,0.00021968103828839958
1772558683449522200,1.959522216796875,0.0007558454526588321,0.000707459170371294,-0.0001279496354982257
1772558683469434400,1.979434326171875,0.0009614122682251036,-0.0013318727724254131,0.002353658201172948
1772558683489346300,1.99934619140625,-0.0022167121060192585,0.0017709662206470966,0.002619546838104725
1772558683509258200,2.01925830078125,-0.0009548831731081009,0.0008344054222106934,0.002435311209410429
1772558683529170200,2.039170166015625,-0.0007469211705029011,0.00033582281321287155,0.0013051441637799144
1772558683549082400,2.059082275390625,0.0012509485241025686,-0.0008990559726953506,-0.00026543575222603977
1772558683568994300,2.078994384765625,-0.0012751054018735886,-0.0011021289974451065,0.0011222587199881673
1772558683588906200,2.09890625,0.0005437430227175355,-0.0017284508794546127,0.0026069467421621084
1772558683608818200,2.118818115234375,0.0023518672678619623,-0.002315215766429901,0.00044788059312850237
1772558683628730400,2.13873046875,-0.00032601633574813604,-0.0003159567713737488,0.00047742328024469316
1772558683648642300,2.158642333984375,0.0006234229076653719,-0.002216047141700983,-0.0014178685378283262
1772558683668554200,2.17855419921875,0.002126566832885146,-0.0012240922078490257,-0.0018229568377137184
1772558683688466400,2.198466552734375,0.0010792515240609646,0.0007492913864552975,0.0012605484807863832
1772558683708378400,2.21837841796875,0.003068019403144717,-0.00018355203792452812,0.001405257498845458
1772558683728290300,2.238290283203125,-0.0011766558745875955,-0.001467227004468441,0.0013972943415865302
1772558683748202200,2.2582021484375,0.0023281818721443415,0.00000699702650308609,-0.00002955887612188235
1772558683768114400,2.278114501953125,-0.0004316371341701597,0.000999057199805975,0.0013790662633255124
1772558683788026400,2.2980263671875,-0.0006738706142641604,-0.00010970141738653183,0.0009160557528957725
1772558683807938300,2.317938232421875,-0.0005703449714928865,0.0004132394678890705,-0.0003907718928530812
1772558683827850200,2.337850341796875,0.0026346805971115828,-0.0012634261511266232,0.0011626067571341991
1772558683847762400,2.357762451171875,0.0002877337101381272,0.0008201999589800835,0.0005208656657487154
1772558683867674400,2.37767431640625,0.0009356509544886649,-0.000055519863963127136,-0.00028778918203897774
1772558683887586300,2.39758642578125,0.0015170365804806352,0.00010249484330415726,-0.0022950887214392424
1772558683907498200,2.417498291015625,-0.002012551762163639,0.0005008787848055363,-0.0005828881403431296
1772558683927410400,2.437410400390625,0.0011663715122267604,0.0017490601167082787,-0.0007444521179422736
1772558683947322400,2.457322265625,-0.003058361355215311,0.0006393422372639179,-0.002820983063429594
1772558683967234300,2.477234375,-0.002202959731221199,0.0003128880634903908,-0.0005503994761966169
1772558683987146500,2.497146484375,0.0006493050022982061,0.0005058068782091141,0.0009815028170123696
1772558684007058400,2.517058349609375,-0.00017743455828167498,-0.0002175513654947281,0.0036078952252864838
1772558684026970400,2.536970458984375,-0.0016548681305721402,0.0003285454586148262,-0.0006301947869360447
1772558684046882300,2.55688232421875,0.0013735323445871472,0.0011717984452843666,-0.000964923994615674
1772558684066794500,2.57679443359375,-0.0011998957488685846,0.00269766291603446,-0.0006734633352607489
1772558684086706400,2.59670654296875,-0.0005194626282900572,0.0004653674550354481,0.002123227110132575
1772558684106618400,2.616618408203125,-0.0003103941271547228,-0.0021938751451671124,-0.0004933704622089863
1772558684126530300,2.6365302734375,-0.0012712375028058887,-0.0016390359960496426,0.0012491141678765416
1772558684146442500,2.6564423828125,0.000398660427890718,-0.0005199620500206947,-0.0015727822901681066
1772558684166354400,2.6763544921875,0.00325337634421885,-0.0013054246082901955,-0.0007522870437242091
1772558684186266400,2.696266357421875,-0.00042534395470283926,0.0003322260454297066,-0.0006365631124936044
1772558684206178300,2.71617822265625,-0.0016806747298687696,-0.0012463051825761795,0.0012913671089336276
1772558684226090500,2.736090576171875,-0.0006527682417072356,0.002488252241164446,-0.0012995258439332247
1772558684246002400,2.75600244140625,-0.0020579202100634575,0.0026248227804899216,-0.0004527876153588295
1772558684265914400,2.775914306640625,-0.0007193040801212192,0.0035453769378364086,0.00018559243471827358
1772558684285826300,2.795826416015625,0.0004860139451920986,0.0010701841674745083,0.0025641617830842733
1772558684305738200,2.81573828125,-0.0008014790946617723,-0.00011532008647918701,0.0014149360358715057
1772558684325650200,2.835650146484375,-0.0005755050806328654,0.0010633389465510845,-0.0008911775075830519
1772558684345562000,2.85556201171875,0.0007441167254000902,0.0016675903461873531,-0.0020290822722017765
1772558684365474300,2.875474365234375,0.0012440013233572245,-0.0021788482554256916,0.0027103496249765158
1772558684385386200,2.89538623046875,-0.0010974375763908029,-0.002401163335889578,0.0008455645875073969
1772558684405298200,2.915298095703125,-0.0003658248169813305,0.00001895846799015999,-0.00168523658066988
1772558684425210000,2.935210205078125,0.00012159341713413596,-0.0007952353917062283,0.0002809111319947988
1772558684445122300,2.955122314453125,-0.0001256403629668057,0.0011366303078830242,-0.0006006741314195096
1772558684465034200,2.9750341796875,-0.0009408913319930434,0.0032152761705219746,0.0007012081914581358
1772558684484946200,2.9949462890625,-0.0013731817016378045,-0.0009753960184752941,0.0007412927225232124
1772558684504858400,3.0148583984375,0.002208566991612315,0.0009177783504128456,-0.00018067224300466478
1772558684524770300,3.034770263671875,-0.00013825425412505865,-0.0005002878606319427,0.0026457321364432573
1772558684544682200,3.05468212890625,0.00031562094227410853,0.0015009734779596329,-0.0006768966559320688
1772558684564594200,3.07459423828125,0.0013435689033940434,0.0018951734527945518,-0.00035250565269961953
1772558684584506400,3.09450634765625,-0.0001283771707676351,0.001605240162461996,0.00004027195245726034
1772558684604418300,3.114418212890625,-0.00010995901538990438,-0.0000014016404747962952,-0.0021351599134504795
1772558684624330200,3.134330322265625,-0.0012380658881738782,-0.0003350856713950634,-0.0033939832355827093
1772558684644242200,3.1542421875,-0.0007423271890729666,-0.00032785674557089806,-0.0024582005571573973
1772558684664154400,3.174154296875,-0.0018215407617390156,0.001332511194050312,0.00010170939640374854
1772558684684066300,3.19406640625,0.001243620179593563,-0.0025745448656380177,0.0018004903104156256
1772558684703978200,3.213978271484375,-0.0002902172855101526,-0.00011302856728434563,0.0003952288825530559
1772558684723890400,3.233890380859375,-0.0002586753398645669,-0.0015974086709320545,-0.0012193043949082494
1772558684743802400,3.25380224609375,-0.0007901132921688259,-0.0010141720995306969,-0.0011015416821464896
1772558684763714300,3.27371435546875,-0.00037661814712919295,0.0004990757443010807,0.0009304073755629361
1772558684783626200,3.293626220703125,0.000735442154109478,-0.0019567785784602165,-0.0020436595659703016
1772558684803538400,3.313538330078125,-0.0020610259380191565,0.0022209160961210728,-0.0003497055731713772
1772558684823450400,3.333450439453125,-0.00174646673258394,-0.00033873366191983223,0.00031037721782922745
1772558684843362300,3.3533623046875,-0.0006559159955941141,-0.0013189548626542091,-0.000600809114985168
1772558684863274200,3.373274169921875,-0.00014907633885741234,0.0012359130196273327,-0.0019606142304837704
1772558684883186400,3.3931865234375,-0.00046919521992094815,0.00009003886952996254,0.0005632040556520224
1772558684903098400,3.413098388671875,-0.0014497346710413694,-0.0004563857801258564,0.003234697273001075
1772558684923010300,3.43301025390625,-0.0006750748143531382,-0.00041144900023937225,0.0016255967784672976
1772558684942922200,3.452922119140625,-0.0023650676012039185,-0.001783105544745922,0.0005280202021822333
1772558684962834400,3.47283447265625,-0.0006415914394892752,-0.0006680754013359547,-0.00006119703903095797
1772558684982746400,3.492746337890625,-0.0018979498418048024,-0.0002654111012816429,-0.0019519026391208172
1772558685002658300,3.512658203125,0.0028864112682640553,-0.0030937143601477146,-0.0020959118846803904
1772558685022570500,3.532570556640625,0.0008844402618706226,0.0006115725263953209,-0.00016820986638776958
1772558685042482400,3.552482421875,0.001466978807002306,-0.00029309652745723724,-0.0021143665071576834
1772558685062394400,3.572394287109375,-0.0009093037806451321,0.0016347509808838367,-0.00014405656838789582
1772558685082306300,3.592306396484375,0.00066769914701581,-0.0015463894233107567,0.0016406553331762552
1772558685102218500,3.612218505859375,0.0021752743050456047,-0.0008614221587777138,-0.0014848767314106226
1772558685122130400,3.63213037109375,0.0006501222960650921,0.0004925266839563847,0.001648644800297916
1772558685142042400,3.65204248046875,0.00039347080746665597,0.0011796304024755955,0.0012750772293657064
1772558685161954300,3.671954345703125,-0.0011990538332611322,-0.002211968880146742,-0.00040192424785345793
1772558685181866500,3.691866455078125,0.0006420391728170216,-0.00028599938377738,-0.00045162305468693376
1772558685201778400,3.7117783203125,0.0005459447856992483,0.0007641180418431759,-0.00033147213980555534
1772558685221690400,3.7316904296875,0.00012031833466608077,0.0008269390091300011,-0.00011701240873662755
1772558685241602300,3.751602294921875,0.0006049785297363997,-0.0005209594964981079,-0.0015868796035647392
1772558685261514500,3.771514404296875,-0.0004274558159522712,0.00012830225750803947,-0.0017985723679885268
1772558685281426400,3.791426513671875,-0.00207115663215518,0.001255884300917387,0.0007888720720075071
1772558685301338400,3.81133837890625,-0.00041324656922370195,-0.0023501659743487835,0.0005583921447396278
1772558685321250600,3.83125048828125,-0.0021409494802355766,0.0020393249578773975,-0.0013133775210008025
1772558685341162200,3.851162353515625,0.0015734417829662561,0.00019844435155391693,0.0009783090790733695
1772558685361074200,3.87107421875,-0.0020280994940549135,-0.000647244043648243,-0.0009343033889308572
1772558685380986000,3.890986083984375,0.000902597326785326,-0.00011778483167290688,-0.0026017609052360058
1772558685400898300,3.910898193359375,-0.0007757371058687568,-0.00016914401203393936,0.0011726000811904669
1772558685420810200,3.930810302734375,0.000564417103305459,0.00038799969479441643,-0.0005151815712451935
1772558685440723200,3.95072314453125,0.0006668646237812936,0.0007775174453854561,-0.0005779194761998951
1772558685460635100,3.97063525390625,0.0014771583955734968,-0.0014405609108507633,0.0021072495728731155
1772558685480547000,3.990547119140625,0.0012440398568287492,-0.0026081851683557034,-0.00043318403186276555
1772558685500459000,4.010458984375,0.00003179130726493895,0.0007068105041980743,0.001643359544686973
1772558685520371000,4.030370849609375,-0.0017552368808537722,-0.0007960386574268341,-0.000058606376114767045
1772558685540283000,4.050282958984375,-0.0008961125859059393,0.0009945719502866268,0.0000976994342636317
1772558685560195000,4.070195068359375,0.0005260359030216932,0.0003467118367552757,0.0019652186892926693
1772558685580107000,4.09010693359375,0.0028325815219432116,0.0005110446363687515,-0.0012722359970211983
1772558685600019000,4.11001904296875,0.001527885440737009,-0.0006776601076126099,-0.00024289864813908935
1772558685619930000,4.12993017578125,-0.0007800477906130254,0.0015117768198251724,-0.0009039618307724595
1772558685639842000,4.149842041015625,-0.00020916786161251366,-0.0009444062598049641,-0.0002236055734101683
1772558685659754000,4.16975390625,0.0013876559678465128,-0.0012987847439944744,0.00011486356379464269
1772558685679666000,4.189666015625,-0.0007880917401053011,0.00024292618036270142,0.0006582521018572152
1772558685699578000,4.209578125,-0.001552702160552144,-0.000704717356711626,-0.0013188757002353668
1772558685719490000,4.229489990234375,-0.0029654493555426598,-0.0007105055265128613,0.0021689024288207293
1772558685739402000,4.249402099609375,0.0012163270730525255,-0.00008530355989933014,0.001820849603973329
1772558685759314200,4.269314208984375,-0.0019892812706530094,-0.00054978858679533,-0.001844894140958786
1772558685779226000,4.28922607421875,0.0018656846368685365,0.000009632669389247894,0.001131473109126091
1772558685799138000,4.309137939453125,0.0003919193404726684,0.000919233076274395,0.0010514274472370744
1772558685819050000,4.329050048828125,-0.0017503969138488173,-0.00006223935633897781,0.002465180354192853
1772558685838962200,4.348962158203125,0.0014761912170797586,0.00017005298286676407,0.0016465301159769297
1772558685858874000,4.3688740234375,-0.0009582145139575005,0.001361470203846693,0.00025194056797772646
1772558685878786000,4.3887861328125,0.0009950923267751932,-0.00043454207479953766,-0.001034703804180026
1772558685898698000,4.408697998046875,-0.0011653915280476213,0.0007444554939866066,0.0026022058445960283
1772558685918610200,4.428610107421875,-0.001220047939568758,0.001104793045669794,-0.0020831178408116102
1772558685938522000,4.448522216796875,-0.002141067059710622,0.00043182866647839546,-0.00006672400195384398
1772558685958434000,4.46843408203125,0.0004148275766056031,-0.0015518693253397942,0.0018777119694277644
1772558685978346000,4.488345947265625,-0.0012089678784832358,-0.0006835064850747585,-0.0008767858380451798
1772558685998258200,4.508258056640625,-0.00009733231854625046,-0.0010446235537528992,0.00022693941718898714
1772558686018170000,4.528170166015625,0.0005266637308523059,-0.000038349535316228867,-0.00018514443945605308
1772558686038082000,4.54808203125,0.0013770873192697763,-0.001270799431949854,0.00003690351513796486
1772558686057994200,4.567994140625,0.0018082248279824853,-0.0029217381961643696,0.001701471977867186
1772558686077906200,4.58790625,0.000825124210678041,-0.0002860180102288723,0.0003647656412795186
1772558686097818000,4.607818115234375,-0.00013374871923588216,-0.0005693505518138409,0.0009456196567043662
1772558686117730000,4.62772998046875,-0.0005528629990294576,-0.002163756638765335,-0.00045259034959599376
1772558686137642200,4.647642333984375,0.0015974293928593397,-0.00010032998397946358,0.0022111607249826193
1772558686157554200,4.66755419921875,0.0018638200126588345,0.0010322039015591145,0.00023992075875867158
1772558686177466000,4.687466064453125,-0.0004415276343934238,-0.0012324531562626362,-0.00039997248677536845
1772558686197378000,4.7073779296875,-0.000625462387688458,0.0018578986637294292,-0.00034668506123125553
1772558686217290200,4.727290283203125,0.00028857035795226693,0.0014517097733914852,-0.0010472266003489494
1772558686237202200,4.7472021484375,0.0016476153396070004,0.0006886008195579052,-0.000148246661410667
1772558686257114000,4.767114013671875,0.0009883968159556389,-0.0010145013220608234,-0.0021188154350966215
1772558686277026300,4.7870263671875,0.0008173639653250575,0.0005542212165892124,-0.00044181186240166426
1772558686296938200,4.806938232421875,-0.002676833188161254,0.0008256416767835617,-0.0001133132100221701
1772558686316850200,4.82685009765625,0.0003098239831160754,-0.002743824850767851,0.000006551639671670273
1772558686336762000,4.84676220703125,-0.0011899506207555532,0.000015123747289180756,0.0014485671417787671
1772558686356674000,4.866674072265625,-0.00007925627869553864,-0.0025738016702234745,-0.0005121869617141783
1772558686376586000,4.8865859375,0.0007155411876738071,-0.0020121531561017036,0.0001418500323779881
1772558686396498000,4.906497802734375,-0.0005443156114779413,0.001481829211115837,0.0009847356704995036
1772558686416409900,4.926409912109375,-0.0008272181730717421,-0.000869982410222292,0.002261451445519924
1772558686436322000,4.946322021484375,-0.002065826440230012,0.0015504546463489532,-0.0017823976231738925
1772558686456233000,4.96623291015625,-0.00019598248763941228,0.0009772325865924358,-0.0007099183858372271
1772558686476145200,4.986145263671875,0.0012738839723169804,0.00037268875166773796,0.001902192598208785
1772558686496057000,5.00605712890625,-0.0015326924622058868,-0.0016718152910470963,-0.0003834188391920179
1772558686515969000,5.025968994140625,-0.0014505365397781134,-0.0007985467091202736,0.00028297421522438526
1772558686535881000,5.045880859375,0.0012846102472394705,0.0005567325279116631,-0.00044637310202233493
1772558686555793200,5.065793212890625,-0.0009887139312922955,0.00006748829036951065,-0.001989120151847601
1772558686575705000,5.085705078125,0.0005029724561609328,-0.0011639357544481754,0.0004079689970239997
1772558686595617000,5.105616943359375,0.003478823695331812,-0.0019254721701145172,0.00015361903933808208
1772558686615529000,5.125529052734375,0.0038641232531517744,0.001471993513405323,-0.0023235271219164133
1772558686635441200,5.145441162109375,0.0006908943178132176,-0.0008265729993581772,0.002552808029577136
1772558686655353000,5.16535302734375,0.0017638751305639744,0.0011547673493623734,0.0009023953462019563
1772558686675265000,5.18526513671875,-0.0002350719296373427,-0.0008966452442109585,-0.0011381551157683134
1772558686695177000,5.205177001953125,0.00180733110755682,0.0004124520346522331,0.0008068509632721543
1772558686715089200,5.225089111328125,-0.0017892745090648532,0.001300162635743618,0.0020202272571623325
1772558686735001000,5.2450009765625,-0.00015724459080956876,-0.0011983108706772327,0.002296260092407465
1772558686754913000,5.2649130859375,0.004000922664999962,-0.0012280801311135292,0.0007944314857013524
1772558686774825200,5.2848251953125,0.0010137114441022277,-0.0007948684506118298,-0.0036331461742520332
1772558686794737200,5.304737060546875,0.0010890231933444738,-0.0020271954126656055,0.00034869121736846864
1772558686814649000,5.324649169921875,0.0003001666918862611,-0.0008794628083705902,0.000797273067291826
1772558686834561000,5.34456103515625,0.00006048698560334742,-0.0009301244281232357,-0.00030559321749024093
1772558686854473200,5.36447314453125,-0.00022899845498614013,-0.0006079119630157948,0.0014787951949983835
1772558686874385200,5.38438525390625,0.001164281158708036,0.0016364664770662785,0.0003519924939610064
1772558686894297000,5.404297119140625,-0.0014495451468974352,-0.00016844039782881737,-0.0002476436202414334
1772558686914209000,5.424208984375,-0.003190429415553808,0.0014187400229275227,-0.001208655652590096
1772558686934121200,5.444121337890625,-0.00272620702162385,0.002112042624503374,0.0008285429212264717
1772558686954033200,5.464033203125,-0.000456506124464795,-0.001096281222999096,0.0005508210742846131
1772558686973945000,5.483945068359375,-0.0017808624543249607,-0.000578888226300478,-0.0014924600254744291
1772558686993857000,5.50385693359375,0.0013985843397676945,-0.0008039860986173153,-0.0011021867394447327
1772558687013769200,5.523769287109375,0.0017623973544687033,-0.0020751021802425385,0.0004544197872746736
1772558687033681200,5.54368115234375,-0.00048209974193014205,-0.0019142595119774342,0.0018912525847554207
1772558687053593000,5.563593017578125,-0.0006323410198092461,0.0014083138667047024,0.003595256246626377
1772558687073505300,5.58350537109375,-0.0008477801457047462,0.0014352337457239628,-0.0013625529827550054
1772558687093417200,5.603417236328125,-0.0006134877912700176,0.00093082245439291,-0.0014350259443745017
1772558687113329200,5.6233291015625,-0.0012007401091977954,0.002123376354575157,0.000832400459330529
1772558687133240000,5.643239990234375,-0.0015572719275951385,0.00253590801730752,0.0018308546859771013
1772558687153152000,5.663152099609375,-0.0008639720035716891,0.0018964419141411781,-0.0004918815102428198
1772558687173064000,5.68306396484375,0.00253096385858953,-0.000047868117690086365,0.0022358065471053123
1772558687192976000,5.702975830078125,0.0028692863415926695,0.002680187113583088,-0.0004382269107736647
1772558687212888000,5.72288818359375,0.00037237824290059507,0.0006394260562956333,-0.0007378319860436022
1772558687232800000,5.742800048828125,-0.00009006695472635329,0.0018236758187413216,0.001245512394234538
1772558687252712000,5.7627119140625,0.0014762459322810173,-0.0003999834880232811,0.0016433215932920575
1772558687272624000,5.7826240234375,-0.0007710945792496204,-0.0009399810805916786,-0.0005684523493982852
1772558687292536000,5.8025361328125,-0.0011784371454268694,0.00048062345013022423,0.00320672825910151
1772558687312448000,5.822447998046875,-0.00034300514380447567,0.00020600203424692154,0.00020475208293646574
1772558687332360000,5.84235986328125,-0.0017817323096096516,0.000689363107085228,-0.0011544704902917147
1772558687352272100,5.862272216796875,0.0017577623948454857,-0.0020078616216778755,0.0007524320390075445
1772558687372184000,5.88218408203125,-0.0006296113133430481,0.0012120665051043034,-0.00033096777042374015
1772558687392096000,5.902095947265625,0.0013149267761036754,0.0003050202503800392,-0.0009038772550411522
1772558687412008000,5.922008056640625,-0.000012065662303939462,0.0013500791974365711,0.0015911469236016273
1772558687431920000,5.941920166015625,-0.0015956375282257795,0.00032568490132689476,-0.0003471531381364912
1772558687451832000,5.96183203125,0.0011631343513727188,-0.0005158558487892151,-0.0009762761765159667
1772558687471744000,5.981743896484375,0.0009784812573343515,-0.0006641717627644539,0.0028972066938877106
1772558687491656200,6.00165625,0.0018924663309007883,-0.001961402129381895,-0.001211013412103057
1772558687511568100,6.021568115234375,0.0010297626722604036,0.001001240685582161,-0.001465463894419372
1772558687531480000,6.04147998046875,-0.001433110679499805,-0.0014234562404453754,0.0016044077929109335
1772558687551392000,6.06139208984375,0.0037212905008345842,-0.001006302423775196,0.0014891676837578416
1772558687571304200,6.08130419921875,-0.0010644288267940283,-0.00024427007883787155,-0.002355095697566867
1772558687591216000,6.101216064453125,0.0009032853413373232,-0.000813542865216732,0.00016075849998742342
1772558687611128000,6.121128173828125,0.001092360122129321,0.0014330055564641953,-0.0003045770572498441
1772558687631040000,6.1410400390625,-0.0021510121878236532,0.0016545974649488926,0.0002736189926508814
1772558687650952200,6.1609521484375,-0.00006089711678214371,-0.00011586491018533707,-0.001907741418108344
1772558687670864100,6.180864013671875,-0.0010045873932540417,0.00021648360416293144,-0.002457487629726529
1772558687690776000,6.200776123046875,0.0003307361912447959,-0.0021390942856669426,0.0023138890974223614
1772558687710688000,6.22068798828125,0.0012737489305436611,-0.00021534226834774017,0.0010476047173142433
1772558687730600200,6.24060009765625,-0.0004617647791747004,0.00041135773062705994,-0.001144301611930132
1772558687750512000,6.26051220703125,-0.001685946132056415,-0.0007464280351996422,0.0006272380123846233
1772558687770424000,6.280424072265625,-0.003489858005195856,-0.0009011547081172466,-0.0006640547653660178
1772558687790336300,6.300336181640625,-0.0003324051504023373,-0.0008879764936864376,-0.002541325753554702
1772558687810248200,6.320248291015625,0.00032434039167128503,-0.0005773250013589859,0.0022949061822146177
1772558687830160100,6.34016015625,-0.001083949813619256,0.0004450622946023941,-0.0005608343635685742
1772558687850072000,6.360072021484375,0.0008602007292211056,0.0007798727601766586,0.0002256529260193929
1772558687869984300,6.379984375,-0.0015721750678494573,0.00007145898416638374,0.0013024493819102645
1772558687889896200,6.399896240234375,-0.00047896133037284017,0.0015639718621969223,-0.00043150692363269627
1772558687909808000,6.41980810546875,-0.002191660925745964,0.00008162017911672592,0.00003681172529468313
1772558687929720000,6.439719970703125,-0.0024774461053311825,-6.803311407566071e-7,0.0003453349636401981
1772558687949632300,6.45963232421875,-0.0013132139574736357,0.0007074079476296902,-0.00002751059946604073
1772558687969544200,6.479544189453125,0.000016403791960328817,0.00004672817885875702,-0.0020677142310887575
1772558687989456100,6.4994560546875,-0.00008385110413655639,-0.00022733304649591446,-0.00041816398152150214
1772558688009368000,6.5193681640625,0.0012740809470415115,0.0005814787000417709,-0.0008701601182110608
1772558688029280300,6.5392802734375,0.0012470507062971592,-0.0010704942978918552,-0.0021655913442373276
1772558688049192200,6.559192138671875,-0.00025912775890901685,-0.001141493208706379,0.000903985695913434
1772558688069103900,6.579103759765625,0.0018140857573598623,0.00230191508308053,0.0004926558467559516
1772558688089016000,6.59901611328125,-0.0012045818148180842,0.0016692401841282845,0.002341556129977107
1772558688108928000,6.618927978515625,-0.0038031882140785456,0.00022341590374708176,0.0000539819011464715
1772558688128839000,6.6388388671875,-0.0008574917446821928,-0.0006844648160040379,0.0002795629552565515
1772558688148751000,6.658751220703125,0.00047672438086010516,0.00036697136238217354,-0.00004652333882404491
1772558688168663000,6.6786630859375,-0.000952046480961144,0.0013859611935913563,0.0013176914071664214
1772558688188575000,6.698574951171875,-0.00041262872400693595,-0.00041204551234841347,0.0003305970458313823
1772558688208487000,6.71848681640625,-0.00020275672432035208,0.0016652238555252552,0.00018580608593765646
1772558688228399000,6.738399169921875,0.0020749694667756557,-0.0009855898097157478,-0.001795296324416995
1772558688248311000,6.75831103515625,0.001559181371703744,0.0005930634215474129,-0.0007733642123639584
1772558688268223000,6.778222900390625,0.0025635913480073214,-0.0031857057474553585,0.00034384135506115854
1772558688288135200,6.79813525390625,0.0002522807626519352,-0.0000962158665060997,-0.0013224511640146375
1772558688308047000,6.818047119140625,-0.00018123141489923,0.0017598201520740986,0.0017149483319371939
1772558688327959000,6.837958984375,-0.001457608537748456,-0.00040682079270482063,-0.0007485545356757939
1772558688347871000,6.85787109375,0.0005397106288000941,0.0009764106944203377,0.0014598558191210032
1772558688367783200,6.877783203125,0.000771801162045449,0.0007721963338553905,0.0019894284196197987
1772558688387695000,6.897695068359375,0.00043028584332205355,-0.0014305384829640388,0.0012777557130903006
1772558688407607000,6.91760693359375,-0.0010102458763867617,-0.0018409579060971737,-0.0001347124925814569
1772558688427519000,6.93751904296875,-0.00028204615227878094,-0.0005346424877643585,-0.0010934924939647317
1772558688447431700,6.957431640625,0.00004939103382639587,-0.00006641633808612823,0.001378482673317194
1772558688467343600,6.977343505859375,-0.0012263895478099585,-0.0004017218016088009,-0.001372593455016613
1772558688487255600,6.997255615234375,0.0005948417820036411,0.0009610266424715519,-0.0010066434042528272
1772558688507167500,7.01716748046875,-0.0017082199919968843,0.000337046105414629,0.00016146540292538702
1772558688527079700,7.03707958984375,-0.0004993423353880644,-0.002518452238291502,-0.0006178999901749194
1772558688546991600,7.05699169921875,-0.0010322059970349073,0.000002517830580472946,-0.002515961416065693
1772558688566903600,7.076903564453125,0.0008267966331914067,-0.0002159755676984787,0.0006481768214143813
1772558688586815500,7.0968154296875,0.0005543743609450758,0.00031387386843562126,-0.00103675143327564
1772558688606727700,7.116727783203125,-0.00008462299592792988,-0.00014773663133382797,-0.00008805336256045848
1772558688626639600,7.1366396484375,-0.0017553736688569188,-0.0011402270756661892,-0.00008277502638520673
1772558688646551600,7.156551513671875,0.0002885370922740549,0.0009362488053739071,-0.00012260852963663638
1772558688666463500,7.17646337890625,0.0028751534409821033,0.00045972736552357674,0.0024581842590123415
1772558688686375700,7.196375732421875,-0.0019497810862958431,-0.0010323668830096722,-0.001452739117667079
1772558688706287600,7.21628759765625,-0.0024768731091171503,-0.0007641352713108063,0.0010623062262311578
1772558688726199600,7.236199462890625,0.0012977472506463528,0.056578777730464935,0.01332102157175541
1772558688746111700,7.25611181640625,0.0007849164539948106,0.003502234350889921,0.00482395151630044
1772558688766023700,7.276023681640625,0.0007061430951580405,-0.0000650668516755104,-0.0005216378485783935
1772558688785935600,7.295935546875,0.00008601904846727848,-0.00217348150908947,-0.0006378094549290836
1772558688805847600,7.31584765625,-0.000990235130302608,-0.014764631167054176,-0.003806009888648987
1772558688825758700,7.3357587890625,0.00015478060231544077,0.01400521770119667,0.00460396334528923
