time,seconds_elapsed,z,y,x
1772557411992454700,0.10345458984375,0.17393875122070312,0.14675605297088623,-0.1426328420639038
1772557412012351700,0.123351806640625,0.16783028841018677,0.15530791878700256,-0.13896775245666504
1772557412052146700,0.163146728515625,0.09086353331804276,0.1907370537519455,-0.15973655879497528
1772557412072042800,0.183042724609375,0.07009471952915192,0.18462859094142914,-0.18905723094940186
1772557412091939800,0.20293994140625,0.0713164210319519,0.18096350133419037,-0.1841704547405243
1772557412111837700,0.222837646484375,0.0713164210319519,0.20784078538417816,-0.12675081193447113
1772557412131734800,0.24273486328125,0.07620319724082947,0.22250111401081085,-0.04978405311703682
1772557412151630800,0.262630859375,0.10430216789245605,0.19195875525474548,0.025961007922887802
1772557412171528000,0.28252783203125,0.1385096162557602,0.11377029865980148,0.08948912471532822
1772557412191425800,0.30242578125,0.14217470586299896,0.06001574173569679,0.18966807425022125
1772557412211322600,0.322322509765625,0.1238492801785469,0.01847812905907631,0.29717719554901123
1772557412231219000,0.342218994140625,0.12262758612632751,0.006261184345930815,0.2641914486885071
1772557412251116000,0.362115966796875,0.10063708573579788,0.04169032722711563,0.08582404255867004
1772557412271014000,0.382013916015625,0.10674555599689484,0.07711946964263916,-0.059557609260082245
1772557412290910700,0.40191064453125,0.164165198802948,0.08811471611261368,-0.08032641559839249
1772557412310807000,0.42180712890625,0.26312246918678284,0.08200624585151672,0.00030542362947016954
1772557412330704100,0.4417041015625,0.3987305462360382,0.05390727147459984,0.12125317752361298
1772557412350601700,0.461601806640625,0.5013529062271118,0.05635065957903862,0.25319617986679077
1772557412370498800,0.481498779296875,0.49524441361427307,0.07467607408761978,0.33627140522003174
1772557412390395100,0.50139501953125,0.3828485310077667,0.07101099193096161,0.3399364948272705
1772557412410292200,0.521292236328125,0.20081603527069092,0.06001574173569679,0.2874036431312561
1772557412430189800,0.54118994140625,-0.014202198944985867,0.05024218559265137,0.22754059731960297
1772557412450087000,0.5610869140625,-0.18401773273944855,0.046577103435993195,0.19821994006633759
1772557412469983000,0.58098291015625,-0.2695363461971283,0.06245913356542587,0.16767756640911102
1772557412489880000,0.600880126953125,-0.2805316150188446,0.09177979826927185,0.1041494607925415
1772557412509778000,0.62077783203125,-0.23410721123218536,0.14064757525920868,-0.03268032893538475
1772557412529675000,0.640675048828125,-0.15958385169506073,0.1760767251253128,-0.197609081864357
1772557412549571000,0.660571044921875,-0.10949437320232391,0.14186927676200867,-0.23792500793933868
1772557412569468200,0.68046826171875,-0.10094250738620758,0.05512896552681923,-0.08399149775505066
1772557412589366000,0.700365966796875,-0.10094250738620758,-0.024281177669763565,0.1298050433397293
1772557412609263000,0.72026318359375,-0.1253764033317566,-0.03771981969475746,0.2593046724796295
1772557412629159200,0.7401591796875,-0.16691401600837708,-0.012064233422279358,0.3020639717578888
1772557412649056300,0.76005615234375,-0.20845162868499756,0.006261184345930815,0.30572906136512756
1772557412668954000,0.7799541015625,-0.2438807636499405,0.04169032722711563,0.26663482189178467
1772557412688851200,0.799851318359375,-0.252432644367218,0.0978882759809494,0.18600298464298248
1772557412708747300,0.819747314453125,-0.23777230083942413,0.11865708231925964,0.08460234850645065
1772557412728644400,0.839644287109375,-0.21333840489387512,0.09422318637371063,0.00519220158457756
1772557412748542200,0.859542236328125,-0.19379130005836487,0.025808297097682953,-0.016798298805952072
1772557412768439000,0.87943896484375,-0.21333840489387512,-0.0328330397605896,0.025961007922887802
1772557412788335400,0.89933544921875,-0.24998924136161804,-0.05726693198084831,0.06016845628619194
1772557412808232400,0.919232421875,-0.27442312240600586,-0.05360184609889984,0.06139015033841133
1772557412828130000,0.939130126953125,-0.27320143580436707,-0.05726693198084831,0.07238540053367615
1772557412848027100,0.959027099609375,-0.2536543309688568,-0.0719272643327713,0.1041494607925415
1772557412867923500,0.97892333984375,-0.22311195731163025,-0.07803573459386826,0.12369657307863235
1772557412887820500,0.998820556640625,-0.19501298666000366,-0.07681404054164886,0.12613995373249054
1772557412907718100,1.01871826171875,-0.19989976286888123,-0.04993676394224167,0.09315420687198639
1772557412927615200,1.038615234375,-0.2438807636499405,-0.0022906772792339325,0.002748812548816204
1772557412947511300,1.05851123046875,-0.2951919436454773,0.013591351918876171,-0.09498675167560577
1772557412967408400,1.078408447265625,-0.335507869720459,-0.01817270554602146,-0.09865183383226395
1772557412987306200,1.09830615234375,-0.3990359604358673,-0.05482354015111923,0.06872031837701797
1772557413007203300,1.118203369140625,-0.5150969624519348,-0.043828289955854416,0.2861819267272949
1772557413027099400,1.138099365234375,-0.6140542030334473,-0.0010689827613532543,0.22998400032520294
1772557413046996500,1.15799658203125,-0.6470399498939514,0.03558185324072838,-0.1047603040933609
1772557413066894300,1.177894287109375,-0.6274928450584412,0.03924693539738655,-0.34421244263648987
1772557413086791400,1.19779150390625,-0.5981721878051758,0.006261184345930815,-0.33688226342201233
1772557413106687500,1.2176875,-0.5676298141479492,-0.04504998400807381,-0.08276980370283127
1772557413126584600,1.23758447265625,-0.49677154421806335,-0.10124793648719788,0.22631891071796417
1772557413146482400,1.257482421875,-0.4234698712825775,-0.11346487700939178,0.3778090178966522
1772557413166379500,1.277379638671875,-0.3477247953414917,-0.060932014137506485,0.3509317636489868
1772557413186275600,1.297275634765625,-0.23410721123218536,-0.014507622458040714,0.24342262744903564
1772557413206172700,1.317172607421875,-0.10216420143842697,0.007482878863811493,0.05650337040424347
1772557413226070500,1.337070556640625,0.009009997360408306,0.046577103435993195,-0.22570806741714478
1772557413245967600,1.356967529296875,0.06154286116361618,0.07711946964263916,-0.49448084831237793
1772557413265863700,1.37686376953125,0.07009471952915192,0.024586603045463562,-0.5995466113090515
1772557413285760800,1.3967607421875,0.06032116711139679,-0.08047912269830704,-0.49325916171073914
1772557413305658600,1.41665869140625,0.06642963737249374,-0.16844113171100616,-0.2745758295059204
1772557413325555500,1.436555419921875,0.09575030952692032,-0.18432316184043884,-0.07421794533729553
1772557413345451800,1.45645166015625,0.10796725004911423,-0.11712995916604996,0.06016845628619194
1772557413365348900,1.476348876953125,0.08353336155414581,-0.008399149402976036,0.10903623700141907
1772557413385246500,1.49624658203125,0.0590994730591774,0.06001574173569679,0.05528167635202408
1772557413405143600,1.5161435546875,0.06642963737249374,0.03680354729294777,-0.07421794533729553
1772557413425040000,1.536039794921875,0.09208522737026215,-0.024281177669763565,-0.20005246996879578
1772557413444937000,1.55593701171875,0.12140589207410812,-0.059710320085287094,-0.2855710983276367
1772557413464834600,1.57583447265625,0.17027367651462555,-0.06948387622833252,-0.32344362139701843
1772557413484731600,1.595731689453125,0.22402822971343994,-0.0584886260330677,-0.3148917555809021
1772557413504627700,1.615627685546875,0.23502348363399506,-0.04749337583780289,-0.2476985603570938
1772557413524524800,1.63552490234375,0.2044811248779297,-0.05115845799446106,-0.13652436435222626
1772557413544422700,1.655422607421875,0.17027367651462555,-0.0462716780602932,-0.03268032893538475
1772557413564319700,1.67531982421875,0.14828316867351532,-0.026724567636847496,0.013744063675403595
1772557413584215800,1.6952158203125,0.12262758612632751,0.014813045971095562,0.04550812020897865
1772557413604113000,1.71511279296875,0.0981936976313591,0.06978929787874222,0.0784938707947731
1772557413624010800,1.7350107421875,0.11529742181301117,0.10521844029426575,0.04306473210453987
1772557413643907800,1.754907958984375,0.15927842259407043,0.10033166408538818,-0.06322269141674042
1772557413663804000,1.774803955078125,0.188599094748497,0.06856760382652283,-0.14874130487442017
1772557413683701000,1.794700927734375,0.19959434866905212,0.029473381116986275,-0.18050536513328552
1772557413703598800,1.814598876953125,0.22280654311180115,-0.012064233422279358,-0.18661384284496307
1772557413723496000,1.834495849609375,0.2557922899723053,-0.06581879407167435,-0.1438545286655426
1772557413743392000,1.85439208984375,0.28633466362953186,-0.15622419118881226,0.008857285603880882
1772557413763289000,1.8742890625,0.31687700748443604,-0.21853061020374298,0.2104368805885315
1772557413783187000,1.89418701171875,0.3620797097682953,-0.18310146033763885,0.22021043300628662
1772557413803083800,1.914083740234375,0.402395635843277,-0.060932014137506485,-0.0778830274939537
1772557413822980000,1.93397998046875,0.423164427280426,0.045355409383773804,-0.40285375714302063
1772557413842877200,1.953877197265625,0.44637662172317505,0.06490252166986465,-0.4737120568752289
1772557413862774800,1.97377490234375,0.45981526374816895,0.00259610079228878,-0.23181653022766113
1772557413882671900,1.993671875,0.4390464723110199,-0.07681404054164886,0.09804098308086395
1772557413902568200,2.013568115234375,0.3828485310077667,-0.14278554916381836,0.2861819267272949
1772557413922465300,2.03346533203125,0.26067906618118286,-0.14278554916381836,0.34848836064338684
1772557413942363000,2.05336279296875,0.05787777900695801,-0.0841442123055458,0.37170055508613586
1772557413962260000,2.073260009765625,-0.14248012006282806,-0.012064233422279358,0.33260634541511536
1772557413982156000,2.093156005859375,-0.23899398744106293,0.023364907130599022,0.144465371966362
1772557414002053000,2.11305322265625,-0.20845162868499756,0.014813045971095562,-0.09743013978004456
1772557414021951000,2.132950927734375,-0.11682453751564026,0.01969982497394085,-0.2513636350631714
1772557414041848000,2.15284814453125,-0.025197450071573257,0.06978929787874222,-0.26602399349212646
1772557414061744000,2.172744140625,0.02489202655851841,0.11743538826704025,-0.20127417147159576
1772557414081641200,2.19264111328125,0.0456608310341835,0.14797775447368622,-0.16217994689941406
1772557414101539000,2.2125390625,0.0456608310341835,0.13209572434425354,-0.16340164840221405
1772557414121436200,2.232436279296875,0.033443886786699295,0.07467607408761978,-0.11942064017057419
1772557414141332200,2.252332275390625,0.02244863659143448,0.04169032722711563,0.014965757727622986
1772557414161229300,2.272229248046875,0.009009997360408306,0.05390727147459984,0.145687073469162
1772557414181127200,2.292127197265625,-0.014202198944985867,0.06856760382652283,0.16401249170303345
1772557414201024000,2.31202392578125,-0.04474456235766411,0.09422318637371063,0.06383354216814041
1772557414220920300,2.33192041015625,-0.08261708915233612,0.1247655525803566,-0.07055285573005676
1772557414240817400,2.3518173828125,-0.10582929104566574,0.12354385852813721,-0.13774605095386505
1772557414260715300,2.37171533203125,-0.12781979143619537,0.07101099193096161,-0.12064233422279358
1772557414280612000,2.391612060546875,-0.1498102843761444,0.007482878863811493,-0.06688777357339859
1772557414300508400,2.41150830078125,-0.17302247881889343,-0.04504998400807381,0.006413896102458239
1772557414320405500,2.431405517578125,-0.19623468816280365,-0.08292251825332642,0.08460234850645065
1772557414340303000,2.45130322265625,-0.20356485247612,-0.1122431829571724,0.11514470726251602
1772557414360200200,2.4712001953125,-0.19379130005836487,-0.12812520563602448,0.09681928902864456
1772557414380096300,2.49109619140625,-0.18279604613780975,-0.1256818175315857,0.08215895295143127
1772557414399993300,2.510993408203125,-0.18157434463500977,-0.08170082420110703,0.09071081876754761
1772557414419891200,2.53089111328125,-0.18279604613780975,0.0038177953101694584,0.07971556484699249
1772557414439788300,2.550788330078125,-0.20234315097332,0.07834116369485855,0.02229592576622963
1772557414459684400,2.570684326171875,-0.24510246515274048,0.07589777559041977,-0.016798298805952072
1772557414479581400,2.59058154296875,-0.30985227227211,0.01969982497394085,0.06749862432479858
1772557414499479300,2.610479248046875,-0.38071054220199585,0.006261184345930815,0.2886253297328949
1772557414519376400,2.63037646484375,-0.43446511030197144,0.06368082761764526,0.4181249439716339
1772557414539272400,2.6502724609375,-0.462564080953598,0.1650814712047577,0.24220094084739685
1772557414559169500,2.67016943359375,-0.4894413650035858,0.24937839806079865,-0.0925433561205864
1772557414579067400,2.6900673828125,-0.4931064546108246,0.2664821147918701,-0.23425991833209991
1772557414598964200,2.709964111328125,-0.46012070775032043,0.17118994891643524,-0.14018943905830383
1772557414618860500,2.729860595703125,-0.4246915578842163,0.04291202127933502,0.07360709458589554
1772557414638757600,2.749757568359375,-0.3831539452075958,-0.0010689827613532543,0.23975755274295807
1772557414658655500,2.769655517578125,-0.333064466714859,0.049020491540431976,0.27029991149902344
1772557414678552300,2.78955224609375,-0.2683146595954895,0.08933641016483307,0.2495311051607132
1772557414698448400,2.809448486328125,-0.17180079221725464,0.05024218559265137,0.25441789627075195
1772557414718345500,2.829345458984375,-0.055739812552928925,-0.007177455350756645,0.20188501477241516
1772557414738243300,2.849243408203125,0.033443886786699295,-0.01572931744158268,0.00519220158457756
1772557414758140400,2.869140380859375,0.06642963737249374,-0.0010689827613532543,-0.25380703806877136
1772557414778036500,2.889036376953125,0.051769305020570755,-0.01572931744158268,-0.40163207054138184
1772557414797933600,2.90893359375,0.016340164467692375,-0.07070557028055191,-0.37231141328811646
1772557414817831400,2.92883154296875,-0.025197450071573257,-0.11346487700939178,-0.22815145552158356
1772557414837728500,2.948728515625,-0.038636088371276855,-0.11346487700939178,-0.08643488585948944
1772557414857624600,2.96862451171875,-0.022754060104489326,-0.0841442123055458,-0.007024743594229221
1772557414877521700,2.988521728515625,-0.010537114925682545,-0.03649812191724777,0.033291175961494446
1772557414897419500,3.00841943359375,-0.015423892997205257,0.02214321307837963,0.050394900143146515
1772557414917316400,3.02831640625,0.009009997360408306,0.05268557742238045,0.03451287001371384
1772557414937212700,3.048212646484375,0.07864658534526825,0.0587940476834774,-0.025350160896778107
1772557414957109800,3.06810986328125,0.16660858690738678,0.03680354729294777,-0.12064233422279358
1772557414977007600,3.088007568359375,0.24601873755455017,-0.019394399598240852,-0.19150061905384064
1772557414996904400,3.107904541015625,0.3046600818634033,-0.08292251825332642,-0.1951656937599182
1772557415016800500,3.127800537109375,0.3449759781360626,-0.11590826511383057,-0.1585148572921753
1772557415036697600,3.147697509765625,0.35352784395217896,-0.11712995916604996,-0.1169772520661354
1772557415056595500,3.167595458984375,0.3229855000972748,-0.12079504877328873,-0.04856235533952713
1772557415076492500,3.187492431640625,0.26190075278282166,-0.12690351903438568,0.06383354216814041
1772557415096388600,3.207388671875,0.1898207813501358,-0.1122431829571724,0.18844637274742126
1772557415116285700,3.22728564453125,0.12873606383800507,-0.06459710001945496,0.2593046724796295
1772557415136183600,3.24718359375,0.09575030952692032,0.006261184345930815,0.25808295607566833
1772557415156080600,3.26708056640625,0.09941539168357849,0.03558185324072838,0.21898874640464783
1772557415175976700,3.286976806640625,0.13484452664852142,0.0038177953101694584,0.16279079020023346
1772557415195873800,3.306873779296875,0.1629435122013092,-0.025502873584628105,0.08948912471532822
1772557415215771600,3.326771728515625,0.18737739324569702,-0.025502873584628105,0.05772506445646286
1772557415235668500,3.34666845703125,0.2545706033706665,-0.021837789565324783,0.08093725889921188
1772557415255564800,3.366564697265625,0.36452311277389526,-0.043828289955854416,0.16279079020023346
1772557415275462000,3.3864619140625,0.474475622177124,-0.08658760040998459,0.29717719554901123
1772557415295359500,3.406359375,0.5514423847198486,-0.12323843687772751,0.37047886848449707
1772557415315256600,3.426256591796875,0.5990884304046631,-0.12079504877328873,0.16523417830467224
1772557415335153000,3.44615283203125,0.6137487888336182,-0.09269607067108154,-0.1829487532377243
1772557415355049700,3.4660498046875,0.6186355352401733,-0.05726693198084831,-0.34665581583976746
1772557415374947600,3.485947509765625,0.612527072429657,-0.05238015204668045,-0.20371755957603455
1772557415394844700,3.5058447265625,0.5795413255691528,-0.08903098851442337,0.10170606523752213
1772557415414740700,3.52574072265625,0.5025745630264282,-0.12812520563602448,0.3142809271812439
1772557415434637800,3.545637939453125,0.36452311277389526,-0.1513374149799347,0.3179459869861603
1772557415454535700,3.56553564453125,0.18004722893238068,-0.1757712960243225,0.24220094084739685
1772557415474432800,3.585432861328125,0.01511846948415041,-0.1647760421037674,0.19455485045909882
1772557415494328800,3.605328857421875,-0.09116895496845245,-0.08780929446220398,0.12858334183692932
1772557415514226000,3.625225830078125,-0.1388150453567505,0.027029991149902344,0.02229592576622963
1772557415534123800,3.645123779296875,-0.1388150453567505,0.13087402284145355,-0.09498675167560577
1772557415554020600,3.6650205078125,-0.12659808993339539,0.19195875525474548,-0.15973655879497528
1772557415573917000,3.6849169921875,-0.10582929104566574,0.19806721806526184,-0.16340164840221405
1772557415593814000,3.70481396484375,-0.06551336497068405,0.15775130689144135,-0.15362808108329773
1772557415613711600,3.724711669921875,-0.02886253222823143,0.1247655525803566,-0.15118469297885895
1772557415633608700,3.744608642578125,-0.001985253533348441,0.10277505218982697,-0.13652436435222626
1772557415653504800,3.7645048828125,0.02244863659143448,0.09422318637371063,-0.11209046840667725
1772557415673401900,3.78440185546875,0.028557108715176582,0.12843063473701477,-0.091321662068367
1772557415693299700,3.8042998046875,0.032222192734479904,0.16019469499588013,-0.09865183383226395
1772557415713196800,3.82419677734375,0.032222192734479904,0.15652960538864136,-0.15240639448165894
1772557415733092900,3.8440927734375,0.012675080448389053,0.125987246632576,-0.1695101112127304
1772557415752990000,3.863989990234375,-0.001985253533348441,0.07956285774707794,-0.12186402827501297
1772557415772887800,3.8838876953125,-0.025197450071573257,0.02214321307837963,-0.057114217430353165
1772557415792784600,3.90378466796875,-0.07650861889123917,-0.021837789565324783,0.011300674639642239
1772557415812681000,3.923680908203125,-0.1510319858789444,-0.0462716780602932,0.04184303805232048
1772557415832578000,3.943578125,-0.2279987335205078,-0.042606595903635025,0.028404397889971733
1772557415852476000,3.963475830078125,-0.28908345103263855,-0.03161134570837021,0.00519220158457756
1772557415872372700,3.983372802734375,-0.32695600390434265,-0.019394399598240852,-0.010689826682209969
1772557415892268800,4.003268798828125,-0.3342861533164978,0.006261184345930815,-0.005803049076348543
1772557415912166000,4.023165771484375,-0.31351736187934875,0.028251685202121735,0.011300674639642239
1772557415932063700,4.043063720703125,-0.27197974920272827,0.028251685202121735,-0.021685076877474785
1772557415951960800,4.0629609375,-0.25976279377937317,0.08200624585151672,-0.13530266284942627
1772557415971857000,4.08285693359375,-0.29030516743659973,0.18462859094142914,-0.24036839604377747
1772557415991754000,4.10275390625,-0.32817769050598145,0.2029540091753006,-0.22570806741714478
1772557416011651800,4.12265185546875,-0.36971530318260193,0.12720894813537598,-0.057114217430353165
1772557416031549000,4.142548828125,-0.4283566474914551,0.028251685202121735,0.144465371966362
1772557416051445000,4.162445068359375,-0.4821111857891083,-0.0462716780602932,0.18844637274742126
1772557416071342000,4.182342041015625,-0.5297572612762451,-0.111021488904953,0.09071081876754761
1772557416091239700,4.20223974609375,-0.5627430081367493,-0.11590826511383057,0.09071081876754761
1772557416111136800,4.22213671875,-0.5761816501617432,-0.08170082420110703,0.18722468614578247
1772557416131033000,4.242033203125,-0.5541911721229553,-0.030389651656150818,0.21532365679740906
1772557416150930000,4.261929931640625,-0.4943281412124634,0.03558185324072838,0.19944162666797638
1772557416170827800,4.281827880859375,-0.4161396920681,0.10766182839870453,0.2079934924840927
1772557416190724900,4.301724853515625,-0.3208475112915039,0.14064757525920868,0.277630090713501
1772557416210621000,4.321620849609375,-0.18768282234668732,0.10155335813760757,0.3680354654788971
1772557416230518000,4.34151806640625,-0.04474456235766411,0.013591351918876171,0.3374931216239929
1772557416250415900,4.361415771484375,0.04443913698196411,-0.05238015204668045,0.1053711548447609
1772557416270312700,4.381312744140625,0.06154286116361618,-0.07070557028055191,-0.20249587297439575
1772557416290209000,4.401208984375,0.02489202655851841,-0.06826218217611313,-0.41140562295913696
1772557416310106000,4.421106201171875,-0.023975754156708717,-0.09147437661886215,-0.4590517282485962
1772557416330004000,4.44100390625,-0.06062658876180649,-0.09391776472330093,-0.35765108466148376
1772557416349900800,4.46090087890625,-0.07650861889123917,-0.05604523420333862,-0.20493926107883453
1772557416369797000,4.480797119140625,-0.06306997686624527,-0.08170082420110703,-0.09987352788448334
1772557416389694000,4.50069384765625,-0.009315420873463154,-0.18187977373600006,-0.02901524491608143
1772557416409591800,4.520591796875,0.04077405482530594,-0.2576248347759247,0.006413896102458239
1772557416429489000,4.540489013671875,0.07498150318861008,-0.26495498418807983,-0.03023693896830082
1772557416449385000,4.560385009765625,0.13117945194244385,-0.17943638563156128,-0.16706672310829163
1772557416469282000,4.580281982421875,0.1763821393251419,-0.012064233422279358,-0.2867927849292755
1772557416489180000,4.600179931640625,0.20936790108680725,0.1369825005531311,-0.2745758295059204
1772557416509076700,4.62007666015625,0.26067906618118286,0.18707197904586792,-0.19272230565547943
1772557416528973000,4.63997314453125,0.31687700748443604,0.12720894813537598,-0.12430741637945175
1772557416548870100,4.6598701171875,0.3364241421222687,0.0587940476834774,-0.057114217430353165
1772557416568768000,4.67976806640625,0.31565532088279724,0.047798797488212585,0.028404397889971733
1772557416608561000,4.719560791015625,0.296108216047287,0.13209572434425354,0.17256435751914978
1772557416628458000,4.7394580078125,0.27289602160453796,0.16996824741363525,0.21532365679740906
1772557416648355800,4.75935595703125,0.24724042415618896,0.17241163551807404,0.22754059731960297
1772557416668253000,4.7792529296875,0.22402822971343994,0.1247655525803566,0.1713426560163498
1772557416688149000,4.79914892578125,0.19715094566345215,0.06856760382652283,0.06994201242923737
1772557416708046000,4.819046142578125,0.19348587095737457,-0.008399149402976036,-0.011911521665751934
1772557416727944000,4.83894384765625,0.23868857324123383,-0.14278554916381836,0.014965757727622986
1772557416747840800,4.8588408203125,0.28999972343444824,-0.2283041626214981,0.19088977575302124
1772557416767737000,4.878737060546875,0.3364241421222687,-0.2160872220993042,0.34726667404174805
1772557416787634200,4.89863427734375,0.41949936747550964,-0.17943638563156128,0.25686126947402954
1772557416807531800,4.91853173828125,0.5050179958343506,-0.11468657106161118,-0.08765657991170883
1772557416827428900,4.938428955078125,0.5599942207336426,-0.06337540596723557,-0.3552076816558838
1772557416847325000,4.958324951171875,0.5880932211875916,-0.06581879407167435,-0.3148917555809021
1772557416867222000,4.978221923828125,0.6088619828224182,-0.1122431829571724,-0.008246437646448612
1772557416887120000,4.998119873046875,0.6027535200119019,-0.15866757929325104,0.3130592107772827
1772557416907017000,5.018016845703125,0.5270084738731384,-0.14889401197433472,0.4340069890022278
1772557416926913000,5.0379130859375,0.3694098889827728,-0.11346487700939178,0.3692571818828583
1772557416946810000,5.05781005859375,0.16660858690738678,-0.0975828468799591,0.28007346391677856
1772557416966708000,5.0777080078125,0.0029015245381742716,-0.05115845799446106,0.20555010437965393
1772557416986604800,5.097604736328125,-0.07650861889123917,0.0050394898280501366,0.05772506445646286
1772557417006501000,5.117501220703125,-0.058183200657367706,0.03680354729294777,-0.1304158866405487
1772557417026398000,5.13739794921875,-0.017867282032966614,0.03924693539738655,-0.23792500793933868
1772557417046295800,5.1572958984375,0.004123218823224306,0.046577103435993195,-0.20249587297439575
1772557417066193000,5.17719287109375,0.011453386396169662,0.030695075169205666,-0.10964708030223846
1772557417086089000,5.1970888671875,0.0029015245381742716,0.006261184345930815,-0.008246437646448612
1772557417105986000,5.216986083984375,-0.04718795046210289,-0.010842538438737392,0.09804098308086395
1772557417125884000,5.2368837890625,-0.10216420143842697,-0.004734066314995289,0.17622943222522736
1772557417145780700,5.25678076171875,-0.1510319858789444,0.011147962883114815,0.23120568692684174
1772557417165677000,5.276677001953125,-0.21333840489387512,0.030695075169205666,0.28007346391677856
1772557417185574100,5.29657421875,-0.2683146595954895,0.06123743951320648,0.22631891071796417
1772557417205471700,5.3164716796875,-0.30985227227211,0.09910997003316879,0.07605048269033432
1772557417225368800,5.336368896484375,-0.33917292952537537,0.09910997003316879,-0.05467082932591438
1772557417245265000,5.356264892578125,-0.3611634373664856,0.06368082761764526,-0.12064233422279358
1772557417265162000,5.376161865234375,-0.37948885560035706,0.014813045971095562,-0.11209046840667725
1772557417285059800,5.396059814453125,-0.3843756318092346,-0.021837789565324783,-0.059557609260082245
1772557417304957000,5.41595703125,-0.38071054220199585,-0.060932014137506485,-0.011911521665751934
1772557417324853000,5.43585302734375,-0.3721587061882019,-0.111021488904953,0.00030542362947016954
1772557417344750000,5.45575,-0.36482852697372437,-0.13179029524326324,-0.016798298805952072
1772557417364648000,5.47564794921875,-0.3611634373664856,-0.0988045409321785,-0.022906772792339325
1772557417384544800,5.495544677734375,-0.33917292952537537,-0.05115845799446106,0.003970507066696882
1772557417404440800,5.51544091796875,-0.3171824514865875,-0.014507622458040714,0.04184303805232048
1772557417424338000,5.535337890625,-0.30252209305763245,0.006261184345930815,0.030847785994410515
1772557417444235800,5.55523583984375,-0.3110739588737488,0.013591351918876171,-0.040010496973991394
1772557417464132900,5.5751328125,-0.3623851239681244,0.02092151902616024,-0.10720369219779968
1772557417484029000,5.59502880859375,-0.4381301999092102,0.027029991149902344,-0.07666133344173431
1772557417503926000,5.614926025390625,-0.5041016936302185,0.00992626789957285,0.10048437118530273
1772557417523823900,5.634823974609375,-0.5370874404907227,-0.030389651656150818,0.34604495763778687
1772557417543720700,5.654720703125,-0.5615213513374329,-0.04871506989002228,0.4474456310272217
1772557417563617000,5.674616943359375,-0.5810684561729431,-0.004734066314995289,0.20555010437965393
1772557417583513900,5.694513916015625,-0.5566345453262329,0.06856760382652283,-0.1560714691877365
1772557417603411700,5.71441162109375,-0.4784461259841919,0.07467607408761978,-0.31122666597366333
1772557417623308800,5.734308837890625,-0.43446511030197144,0.02214321307837963,-0.25502872467041016
1772557417663102000,5.77410205078125,-0.3623851239681244,-0.04016320779919624,0.011300674639642239
1772557417682999800,5.793999755859375,-0.3367295563220978,-0.008399149402976036,0.1041494607925415
1772557417702896600,5.813896728515625,-0.28664007782936096,0.03802524134516716,0.20432840287685394
1772557417722793000,5.83379296875,-0.14125843346118927,0.04291202127933502,0.29717719554901123
1772557417742689800,5.853689697265625,0.016340164467692375,0.04413371533155441,0.25563958287239075
1772557417762587600,5.873587646484375,0.09697200357913971,0.023364907130599022,0.013744063675403595
1772557417782484700,5.893484619140625,0.10796725004911423,-0.024281177669763565,-0.2904578745365143
1772557417802380800,5.913380859375,0.05787777900695801,-0.062153708189725876,-0.4443913698196411
1772557417822278000,5.93327783203125,-0.009315420873463154,-0.07681404054164886,-0.4162923991680145
1772557417842175700,5.95317578125,-0.058183200657367706,-0.08658760040998459,-0.328330397605896
1772557417862072800,5.97307275390625,-0.08017370104789734,-0.07925742864608765,-0.24403348565101624
1772557417881969000,5.992968994140625,-0.07040014863014221,-0.07681404054164886,-0.16340164840221405
1772557417901866000,6.012865966796875,-0.058183200657367706,-0.0988045409321785,-0.08276980370283127
1772557417921763600,6.032763671875,-0.021532366052269936,-0.13423368334770203,-0.025350160896778107
1772557417941660700,6.05266064453125,0.02733541466295719,-0.14645062386989594,-0.026571854948997498
1772557417961556700,6.072556640625,0.06154286116361618,-0.11712995916604996,-0.07666133344173431
1772557417981453800,6.092453857421875,0.10430216789245605,-0.0841442123055458,-0.14996300637722015
1772557418001351700,6.1123515625,0.1629435122013092,-0.06459710001945496,-0.19883078336715698
1772557418021248800,6.132248779296875,0.22036315500736237,-0.04504998400807381,-0.18783552944660187
1772557418041144800,6.152144775390625,0.2557922899723053,-0.01572931744158268,-0.1169772520661354
1772557418061042000,6.1720419921875,0.2777827978134155,0.006261184345930815,-0.03390202298760414
1772557418080939500,6.191939453125,0.2924431264400482,0.025808297097682953,0.011300674639642239
1772557418100836600,6.211836669921875,0.2802261710166931,0.04291202127933502,0.0393996499478817
1772557418120732700,6.231732666015625,0.23746687173843384,0.06978929787874222,0.06872031837701797
1772557418140629800,6.251629638671875,0.19715094566345215,0.10155335813760757,0.10659284889698029
1772557418160527600,6.271527587890625,0.17393875122070312,0.12110047042369843,0.1298050433397293
1772557418180424700,6.2914248046875,0.17271706461906433,0.11254860460758209,0.11514470726251602
1772557418200320800,6.31132080078125,0.19470755755901337,0.1382041871547699,0.047951508313417435
1772557418220217900,6.3312177734375,0.23746687173843384,0.1650814712047577,-0.06200099736452103
1772557418260012500,6.371012451171875,0.3486410677433014,-0.03405473381280899,-0.004581354558467865
1772557418279908600,6.39090869140625,0.3852919042110443,-0.09025268256664276,0.20310671627521515
1772557418299805700,6.4108056640625,0.43415969610214233,-0.062153708189725876,0.37292224168777466
1772557418319703600,6.43070361328125,0.4940227270126343,-0.03527642786502838,0.43645036220550537
1772557418339600600,6.4506005859375,0.5465555787086487,-0.008399149402976036,0.2764083743095398
1772557418359496700,6.47049658203125,0.5966450572013855,0.03558185324072838,-0.06688777357339859
1772557418379393800,6.490393798828125,0.6479562520980835,0.03924693539738655,-0.33077380061149597
1772557418399291600,6.510291748046875,0.6858287453651428,-0.0328330397605896,-0.28068432211875916
1772557418419188500,6.5301884765625,0.6968240141868591,-0.1122431829571724,0.06872031837701797
1772557418439084500,6.55008447265625,0.6919372081756592,-0.111021488904953,0.44255882501602173
1772557418458981600,6.569981689453125,0.6723901033401489,-0.05115845799446106,0.6453601121902466
1772557418478879500,6.58987939453125,0.5783196687698364,0.001374406274408102,0.6685723066329956
1772557418498776600,6.609776611328125,0.40483900904655457,0.02214321307837963,0.5696150660514832
1772557418518672600,6.629672607421875,0.23380178213119507,0.06001574173569679,0.35948359966278076
1772557418538569700,6.64956982421875,0.12873606383800507,0.1369825005531311,0.02107422985136509
1772557418558467600,6.669467529296875,0.11896250396966934,0.19684553146362305,-0.33443886041641235
1772557418578364400,6.689364501953125,0.1372879147529602,0.2176143378019333,-0.5494571328163147
1772557418598260500,6.709260498046875,0.13117945194244385,0.21272756159305573,-0.5580089688301086
1772557418618157600,6.729157470703125,0.10430216789245605,0.1772984117269516,-0.4089622497558594
1772557418638055400,6.749055419921875,0.08842013776302338,0.12110047042369843,-0.21349111199378967
1772557418657952500,6.768952392578125,0.021226942539215088,0.07711946964263916,-0.01435491070151329
1772557418677848600,6.7888486328125,-0.055739812552928925,0.031916771084070206,0.17867282032966614
1772557418697745700,6.80874560546875,-0.14248012006282806,-0.012064233422279358,0.3277195692062378
1772557418717643500,6.8286435546875,-0.23532891273498535,-0.03161134570837021,0.38636088371276855
1772557418737540400,6.848540283203125,-0.2817533016204834,-0.0328330397605896,0.29473379254341125
1772557418757436400,6.8684365234375,-0.31229567527770996,-0.025502873584628105,0.13469181954860687
1772557418777333500,6.88833349609375,-0.34283801913261414,0.001374406274408102,-0.016798298805952072
1772557418797231400,6.9082314453125,-0.3721587061882019,0.023364907130599022,-0.13408097624778748
1772557418817128400,6.92812841796875,-0.40514445304870605,0.012369656935334206,-0.1682884246110916
1772557418837024500,6.9480244140625,-0.4515688419342041,-0.029167955741286278,-0.15118469297885895
1772557418856921300,6.96792138671875,-0.4894413650035858,-0.07437065243721008,-0.14629791676998138
1772557418876819200,6.987819091796875,-0.5138752460479736,-0.12323843687772751,-0.14751961827278137
1772557418896716300,7.00771630859375,-0.5089884996414185,-0.15744587779045105,-0.12552911043167114
1772557418916612400,7.0276123046875,-0.48577627539634705,-0.16111096739768982,-0.07666133344173431
1772557418936509400,7.047509521484375,-0.43202173709869385,-0.14278554916381836,-0.009468132629990578
1772557418956407300,7.0674072265625,-0.35138988494873047,-0.1244601309299469,0.050394900143146515
1772557418976304000,7.08730419921875,-0.28541839122772217,-0.08780929446220398,0.07605048269033432
1772557418996200400,7.107200439453125,-0.2560977041721344,-0.043828289955854416,0.014965757727622986
1772557419016097500,7.12709765625,-0.2560977041721344,-0.05726693198084831,-0.08399149775505066
1772557419035995100,7.1469951171875,-0.27564483880996704,-0.1122431829571724,-0.1291942000389099
1772557419055892200,7.166892333984375,-0.33917292952537537,-0.13545538485050201,-0.06322269141674042
1772557419075788300,7.186788330078125,-0.41980478167533875,-0.11835165321826935,0.05772506445646286
1772557419095685400,7.206685302734375,-0.49677154421806335,-0.08903098851442337,0.13347013294696808
1772557419115583200,7.226583251953125,-0.5749599933624268,-0.05115845799446106,0.08582404255867004
1772557419135480000,7.24647998046875,-0.6274928450584412,0.051463883370161057,-0.1169772520661354
1772557419155376400,7.26637646484375,-0.6250494718551636,0.1882936656475067,-0.30878329277038574
1772557419175273200,7.286273193359375,-0.5871769189834595,0.2420482337474823,-0.36253786087036133
1772557419195171000,7.306171142578125,-0.5468609929084778,0.254265159368515,-0.25258535146713257
1772557419215068200,7.326068115234375,-0.5028799772262573,0.2725905776023865,-0.013133215717971325
1772557419234964200,7.345964111328125,-0.43324342370033264,0.2554868757724762,0.25808295607566833
1772557419254861300,7.365861328125,-0.32695600390434265,0.11621369421482086,0.4156815707683563
1772557419274759200,7.38575927734375,-0.14125843346118927,-0.07314895838499069,0.4474456310272217
1772557419294656000,7.405656005859375,0.04321744292974472,-0.1782146841287613,0.4083513915538788
1772557419314552000,7.425552001953125,0.18737739324569702,-0.16599774360656738,0.2996205687522888
