time,seconds_elapsed,z,y,x
1772557389169559000,0.10855908203125,0,0,0
1772557389209354000,0.14835400390625,0.1345834732055664,0.1778717041015625,-0.058720529079437256
1772557389229250000,0.16825,0.1193704605102539,0.2767767906188965,-0.1438462734222412
1772557389249147100,0.188147216796875,0.12476730346679688,0.26590394973754883,-0.07266104221343994
1772557389269045000,0.208044921875,-0.10596466064453125,0.20035457611083984,-0.0429190993309021
1772557389288942000,0.227942138671875,-0.3819608688354492,0.06845307350158691,-0.20197921991348267
1772557389308838100,0.247838134765625,-0.6553249359130859,-0.09495925903320312,-0.1776949167251587
1772557389328735200,0.2677353515625,-0.9013757705688477,-0.33544278144836426,-0.21296721696853638
1772557389348633000,0.287633056640625,-1.0855216979980469,-0.4097745418548584,-0.15827953815460205
1772557389368530000,0.307530029296875,-0.9930906295776367,-0.3488006591796875,0.023005545139312744
1772557389388426200,0.32742626953125,-0.7968873977661133,-0.34280991554260254,-0.018681049346923828
1772557389408323300,0.3473232421875,-0.5097360610961914,-0.20373320579528809,-0.18502259254455566
1772557389428221200,0.36722119140625,-0.21967029571533203,0.08489656448364258,-0.2877085506916046
1772557389448118000,0.387117919921875,0.12708377838134766,0.2496798038482666,-0.3678809702396393
1772557389468014300,0.407014404296875,0.24637699127197266,0.1719043254852295,-0.39357373118400574
1772557389487911400,0.426911376953125,0.47991466522216797,0.0657961368560791,-0.26215121150016785
1772557389507809000,0.44680908203125,0.9628829956054688,0.10045981407165527,-0.2907799184322357
1772557389527706000,0.4667060546875,1.312769889831543,0.20369839668273926,-0.4726490080356598
1772557389547602400,0.4866025390625,1.4488458633422852,0.3771820068359375,-0.4038642942905426
1772557389567499500,0.50649951171875,1.4609060287475586,0.1671583652496338,-0.1594422459602356
1772557389587397000,0.526397216796875,1.1052656173706055,-0.5847749710083008,-0.2739262878894806
1772557389607294200,0.546294189453125,0.5832281112670898,-0.8790500164031982,-0.2895965874195099
1772557389627190300,0.566190185546875,0.35063838958740234,-0.673274040222168,-0.01938045024871826
1772557389647087400,0.58608740234375,0.6252565383911133,-0.8884706497192383,0.42719030380249023
1772557389666985200,0.605985107421875,1.214242935180664,-1.0172247886657715,0.6198357939720154
1772557389686882300,0.62588232421875,1.5780878067016602,-1.3353933095932007,0.4598855972290039
1772557389706778400,0.6457783203125,1.4329900741577148,-1.6411725282669067,-0.0396728515625
1772557389726675500,0.665675537109375,0.8903923034667969,-1.799545407295227,-0.7570130825042725
1772557389746573300,0.6855732421875,-0.07031536102294922,-1.9894795417785645,-1.2350263595581055
1772557389766470400,0.705470458984375,-0.8910417556762695,-2.1817073822021484,-1.1946790218353271
1772557389786366500,0.725366455078125,-1.2596731185913086,-2.22149395942688,-1.1167722940444946
1772557389806263600,0.745263671875,-1.519308090209961,-1.977420687675476,-1.0632160902023315
1772557389826161400,0.765161376953125,-1.3465499877929688,-1.673870325088501,-0.8853335380554199
1772557389846058500,0.78505859375,-1.1074390411376953,-1.3646430969238281,-0.7071451544761658
1772557389865954600,0.80495458984375,-0.46335697174072266,-0.6803843975067139,-0.6291050314903259
1772557389885851600,0.8248515625,-0.021100997924804688,-0.12761294841766357,-0.6243386268615723
1772557389905749500,0.84474951171875,0.44248104095458984,0.12575232982635498,-0.6275925636291504
1772557389925646600,0.864646484375,0.77728271484375,0.21131324768066406,-0.6703373789787292
1772557389945542700,0.884542724609375,0.9140214920043945,-0.17572033405303955,-0.8428912162780762
1772557389965439700,0.904439697265625,0.6458644866943359,-0.49991321563720703,-0.8381049036979675
1772557389985337600,0.924337646484375,0.14711761474609375,-0.5247746706008911,-0.8257891535758972
1772557390005234400,0.944234375,-0.619842529296875,-0.5039887428283691,-0.873185396194458
1772557390025130800,0.964130859375,-1.313089370727539,-0.6233893632888794,-0.8952665328979492
1772557390045027800,0.98402783203125,-1.4077863693237305,-0.27192366123199463,-0.9204563498497009
1772557390064925700,1.00392578125,-1.1306705474853516,0.23416972160339355,-0.9605749249458313
1772557390084822500,1.023822509765625,-0.7629890441894531,0.16110503673553467,-1.1897996664047241
1772557390104718800,1.04371875,-0.2700939178466797,0.2075103521347046,-1.2293990850448608
1772557390124616000,1.063615966796875,0.09826850891113281,0.5266914367675781,-1.1885709762573242
1772557390144513800,1.083513671875,0.1939535140991211,0.9248929023742676,-0.9942749738693237
1772557390164410600,1.10341064453125,0.1035451889038086,0.9816627502441406,-0.7895010709762573
1772557390184307000,1.123306884765625,-0.09266853332519531,0.7486593723297119,-0.7620194554328918
1772557390204204000,1.1432041015625,-0.35124969482421875,0.40929150581359863,-0.7843620777130127
1772557390224101600,1.1631015625,-0.6134729385375977,-0.0243527889251709,-0.7608522176742554
1772557390243998700,1.182998779296875,-0.7265710830688477,-0.18041777610778809,-1.1517183780670166
1772557390263895000,1.20289501953125,-0.7597551345825195,-0.06860518455505371,-1.1923400163650513
1772557390283792100,1.222792236328125,-0.4965639114379883,0.1587376594543457,-0.9136406183242798
1772557390303689700,1.242689697265625,0.31937694549560547,0.2655489444732666,-0.8962564468383789
1772557390323586800,1.2625869140625,1.013753890991211,-0.04125809669494629,-0.8930068612098694
1772557390343483000,1.28248291015625,1.9282445907592773,-0.10448145866394043,-0.9067288637161255
1772557390363380000,1.3023798828125,2.787407875061035,0.4471132755279541,-0.8406943678855896
1772557390383277800,1.32227783203125,3.1112585067749023,0.8586912155151367,-0.6008517742156982
1772557390403175000,1.3421748046875,2.7520065307617188,0.5375494956970215,-0.22134077548980713
1772557390423071000,1.362071044921875,1.9508085250854492,-0.17963683605194092,-0.4027770459651947
1772557390442968000,1.381968017578125,1.6462640762329102,-0.6681427955627441,-0.964479386806488
1772557390462866000,1.401865966796875,1.1454801559448242,-1.0240305662155151,-1.0850703716278076
1772557390482763000,1.421762939453125,0.0048160552978515625,-1.4303677082061768,-0.6336689591407776
1772557390502659000,1.4416591796875,-0.7970943450927734,-1.626596212387085,0.2876676023006439
1772557390522556200,1.46155615234375,-0.9574995040893555,-1.6173430681228638,0.9750055074691772
1772557390542454000,1.4814541015625,-0.9041299819946289,-1.6244537830352783,1.1661475896835327
1772557390562351000,1.50135107421875,-0.7092247009277344,-1.6599993705749512,1.1621071100234985
1772557390582247200,1.5212470703125,-0.42221832275390625,-1.4991742372512817,1.1281734704971313
1772557390602144300,1.541144287109375,0.015890121459960938,-0.889589786529541,0.922883152961731
1772557390622042000,1.5610419921875,-0.2109994888305664,-0.5447902679443359,0.9583846926689148
1772557390641939200,1.580939208984375,-0.33852577209472656,-0.23681533336639404,0.9176938533782959
1772557390661835300,1.600835205078125,-0.34355640411376953,-0.24828243255615234,0.6058697700500488
1772557390681732400,1.620732421875,-0.5524148941040039,-0.4942646026611328,0.6715703010559082
1772557390701630200,1.640630126953125,-1.152536392211914,-0.8766454458236694,0.776018500328064
1772557390721527300,1.66052734375,-1.5440378189086914,-0.856766939163208,0.7672750949859619
1772557390741423400,1.68042333984375,-1.6288652420043945,-0.8501907587051392,0.5998193025588989
1772557390761320400,1.700320556640625,-1.5002012252807617,-0.7207050323486328,0.6528918743133545
1772557390781218300,1.72021826171875,-1.272047996520996,-0.416589617729187,0.76697838306427
1772557390801115400,1.740115478515625,-0.8246927261352539,0.0474085807800293,0.7752184867858887
1772557390821011500,1.760011474609375,-0.45592403411865234,0.39557206630706787,0.6465827226638794
1772557390840908500,1.779908447265625,-0.28203773498535156,0.8031942844390869,0.7656973004341125
1772557390860806400,1.799806396484375,-0.01657581329345703,1.0776864290237427,0.8841252326965332
1772557390880703500,1.819703369140625,0.1604471206665039,1.150482177734375,0.7100326418876648
1772557390900599600,1.839599609375,-0.029460906982421875,0.8561657667160034,0.5726329684257507
1772557390920496600,1.85949658203125,-0.3853330612182617,0.5826597213745117,0.5457161068916321
1772557390940394500,1.87939453125,-0.4150056838989258,0.315335750579834,0.5597131848335266
1772557390960291300,1.899291259765625,-0.09461784362792969,0.006920576095581055,0.3282301425933838
1772557390980187600,1.919187744140625,0.34374237060546875,0.008751869201660156,0.11151108145713806
1772557391000084700,1.939084716796875,1.0218706130981445,0.5121371746063232,0.1730169653892517
1772557391019982600,1.958982666015625,1.444540023803711,0.9900016784667969,0.48797014355659485
1772557391039879400,1.97887939453125,1.6029586791992188,1.1691670417785645,0.8585449457168579
1772557391059775700,1.998775634765625,1.7491273880004883,1.3588645458221436,0.9291234016418457
1772557391079672800,2.0186728515625,1.6241331100463867,0.7418069839477539,0.48001864552497864
1772557391099570700,2.03857080078125,0.9475603103637695,0.031766414642333984,0.04383525252342224
1772557391119467500,2.058467529296875,0.7788972854614258,-0.1551802158355713,0.09115180373191833
1772557391139363800,2.07836376953125,1.036158561706543,-0.4431273937225342,0.37968748807907104
1772557391159261000,2.098260986328125,1.2765817642211914,-0.9427889585494995,0.5177018642425537
1772557391179158800,2.11815869140625,1.2764263153076172,-1.7102179527282715,0.15858197212219238
1772557391199055600,2.1380556640625,0.6628599166870117,-2.171292304992676,-0.2631026804447174
1772557391218952000,2.157951904296875,-0.4845552444458008,-2.263683557510376,-0.7557063698768616
1772557391238848800,2.177848876953125,-1.1652040481567383,-2.0911929607391357,-1.0388414859771729
1772557391258746600,2.19774658203125,-1.6187639236450195,-1.7719063758850098,-1.1754412651062012
1772557391278643700,2.217643798828125,-1.2921457290649414,-1.3689379692077637,-1.1871371269226074
1772557391298540000,2.2375400390625,-0.9298057556152344,-1.3201824426651,-1.152308702468872
1772557391318437000,2.25743701171875,-0.6372966766357422,-1.08622407913208,-0.8812649250030518
1772557391338334700,2.277334716796875,-0.11481857299804688,-0.6467535495758057,-0.652072548866272
1772557391358231800,2.297231689453125,0.3724336624145508,-0.07068300247192383,-0.6618378758430481
1772557391378128000,2.3171279296875,0.5594186782836914,0.14136695861816406,-0.780375599861145
1772557391398025000,2.33702490234375,0.3441810607910156,0.1401677131652832,-0.8668726682662964
1772557391417922800,2.3569228515625,-0.053310394287109375,-0.03137016296386719,-0.8390558958053589
1772557391437820000,2.37681982421875,-0.7309093475341797,-0.3420240879058838,-0.812717080116272
1772557391457716000,2.396716064453125,-1.1414003372192383,-0.39672183990478516,-0.714813232421875
1772557391477613000,2.416613037109375,-1.3619956970214844,-0.29176807403564453,-0.571720540523529
1772557391497511000,2.436510986328125,-1.3174076080322266,-0.2608296871185303,-0.6005523204803467
1772557391517408000,2.456407958984375,-1.0091066360473633,-0.12739992141723633,-0.4804112911224365
1772557391537304000,2.476303955078125,-0.8149232864379883,0.17013168334960938,-0.28681766986846924
1772557391557201200,2.496201171875,-0.5485610961914062,0.5816030502319336,-0.22788755595684052
1772557391577099000,2.51609912109375,-0.4439535140991211,0.7013263702392578,-0.4787566065788269
1772557391596996000,2.53599609375,-0.39174652099609375,0.6793394088745117,-0.808626651763916
1772557391616892200,2.55589208984375,-0.25872325897216797,0.859116792678833,-0.9604601860046387
1772557391636789200,2.575789306640625,-0.18735599517822266,0.8991372585296631,-0.8260884881019592
1772557391656687000,2.59568701171875,-0.13925647735595703,0.9051275253295898,-0.7464679479598999
1772557391676584200,2.615584228515625,-0.11527347564697266,0.8539314270019531,-0.7973922491073608
1772557391696480300,2.635480224609375,0.1347188949584961,0.7354583740234375,-0.7333775758743286
1772557391716377300,2.65537744140625,0.39868640899658203,0.5662047863006592,-0.7435765266418457
1772557391736275200,2.675275146484375,0.853419303894043,0.5881607532501221,-0.6684163212776184
1772557391756172300,2.69517236328125,1.4774293899536133,0.9493465423583984,-0.4860204756259918
1772557391776068400,2.715068359375,2.045954704284668,0.761618971824646,-0.6664358973503113
1772557391795965400,2.73496533203125,2.5456085205078125,0.8488492965698242,-0.9753588438034058
1772557391815863300,2.75486328125,3.058443069458008,1.1943624019622803,-1.0803117752075195
1772557391835760400,2.774760498046875,3.1443824768066406,0.682982325553894,-1.004478096961975
1772557391855656400,2.794656494140625,2.565493583679199,-0.402443528175354,-0.851961076259613
1772557391875553500,2.814553466796875,1.2882862091064453,-1.4071261882781982,-0.7433696389198303
1772557391895451400,2.834451416015625,-0.27002811431884766,-1.7325489521026611,-0.5080713033676147
1772557391915348500,2.854348388671875,-1.1459779739379883,-1.849575161933899,-0.21368654072284698
1772557391935244500,2.87424462890625,-1.2690048217773438,-1.7903532981872559,-0.016746461391448975
1772557391955141600,2.8941416015625,-1.1066150665283203,-1.7128909826278687,0.3819921612739563
1772557391975039500,2.91403955078125,-0.8577375411987305,-1.575574278831482,0.6496118307113647
1772557391994936600,2.9339365234375,-0.2708873748779297,-1.2736715078353882,0.6635661721229553
1772557392014832600,2.95383251953125,0.3383321762084961,-0.8260712623596191,0.6659609079360962
1772557392034729700,2.973729736328125,0.6694831848144531,-0.3553743362426758,0.5956149101257324
1772557392054627600,2.993627685546875,0.36473560333251953,-0.27791500091552734,0.6333096027374268
1772557392074524700,3.013524658203125,-0.16974639892578125,-0.17855918407440186,0.5480151772499084
1772557392094420700,3.033420654296875,-0.6403293609619141,-0.3413592576980591,0.4452725648880005
1772557392114317800,3.05331787109375,-1.2592992782592773,-0.6073814630508423,0.4491896331310272
1772557392134215700,3.073215576171875,-1.711679458618164,-0.7839311361312866,0.4825255274772644
1772557392154112500,3.093112548828125,-1.9835052490234375,-0.7933909893035889,0.42187172174453735
1772557392174008800,3.1130087890625,-1.9671125411987305,-0.7399978637695312,0.45084190368652344
1772557392193906000,3.132906005859375,-1.6655683517456055,-0.5210163593292236,0.6014658808708191
1772557392213803800,3.1528037109375,-1.204728126525879,-0.2812490463256836,0.670320987701416
1772557392233700900,3.172700927734375,-0.7206239700317383,0.05013167858123779,0.8269564509391785
1772557392253597000,3.192596923828125,-0.31252193450927734,0.3728468418121338,0.9628864526748657
1772557392273494000,3.212493896484375,-0.11856365203857422,0.7046786546707153,0.9567990899085999
1772557392293392000,3.232391845703125,0.004942893981933594,0.9141442775726318,0.9681296348571777
1772557392313288700,3.252288818359375,0.06369686126708984,0.8899825811386108,1.0225082635879517
1772557392333185000,3.27218505859375,0.1437549591064453,0.6525746583938599,0.9409129619598389
1772557392353082000,3.29208203125,0.02510833740234375,0.5993242263793945,0.774391770362854
1772557392372980000,3.31197998046875,0.04419422149658203,0.5706597566604614,0.7357431054115295
1772557392392876800,3.331876708984375,0.15494060516357422,0.4260447025299072,0.6459468007087708
1772557392412773000,3.351773193359375,0.34244537353515625,0.34241724014282227,0.5600384473800659
1772557392432670200,3.371670166015625,0.8989963531494141,0.8019622564315796,0.5487565994262695
1772557392452568000,3.391568115234375,1.709467887878418,1.5253279209136963,0.6349295973777771
1772557392472465000,3.41146484375,1.9995145797729492,1.8100647926330566,0.7791173458099365
1772557392492361200,3.431361328125,1.7873029708862305,1.5510354042053223,0.9110066890716553
1772557392512258300,3.45125830078125,1.2220563888549805,0.7485923767089844,0.6817161440849304
1772557392532156200,3.47115625,0.4067411422729492,-0.060794830322265625,0.2739968001842499
1772557392552053000,3.491052978515625,-0.14360904693603516,-1.1059707403182983,0.25500038266181946
1772557392571949300,3.51094921875,-0.0413055419921875,-2.0081143379211426,0.3790986239910126
1772557392591846400,3.530846435546875,0.7001657485961914,-2.4474875926971436,0.38020557165145874
1772557392611744300,3.550744140625,0.7589750289916992,-2.6423416137695312,0.3212011456489563
1772557392631641000,3.57064111328125,0.40581798553466797,-2.599973678588867,0.009549438953399658
1772557392651537400,3.590537353515625,-0.3057069778442383,-2.275297164916992,-0.42557722330093384
1772557392671434500,3.6104345703125,-0.8783664703369141,-1.272970199584961,-0.5827428698539734
1772557392691332400,3.630332275390625,-0.8673944473266602,-0.2631192207336426,-0.7197368144989014
1772557392711229200,3.650229248046875,-0.49977874755859375,0.054633378982543945,-0.7930623292922974
1772557392731125500,3.67012548828125,-0.0011034011840820312,-0.029896020889282227,-0.72629714012146
1772557392751022600,3.690022705078125,0.3864908218383789,0.00714564323425293,-0.5481711626052856
1772557392770920400,3.70992041015625,0.7126131057739258,0.0792311429977417,-0.27562206983566284
1772557392790817300,3.7298173828125,0.5351629257202148,-0.1025686264038086,-0.052370667457580566
1772557392810713600,3.749713623046875,0.1178131103515625,-0.4941227436065674,0.09420715272426605
1772557392830610700,3.769610595703125,-0.4079122543334961,-0.6051458120346069,-0.05761753022670746
1772557392850508500,3.789508544921875,-0.9260520935058594,-0.8179311752319336,-0.18800008296966553
1772557392870405400,3.8094052734375,-1.4262914657592773,-1.1427913904190063,-0.2983030378818512
1772557392890301700,3.8293017578125,-1.573613166809082,-0.8765389919281006,-0.32940560579299927
1772557392910198800,3.84919873046875,-1.4658994674682617,-0.26619279384613037,-0.4046103358268738
1772557392930096600,3.8690966796875,-1.2551212310791016,0.13666808605194092,-0.5306243896484375
1772557392949993500,3.888993408203125,-0.9182291030883789,0.27902257442474365,-0.8494772911071777
1772557392969889800,3.908889892578125,-0.45645999908447266,0.6363255977630615,-1.0949196815490723
1772557392989787000,3.928786865234375,-0.05929374694824219,0.9313470125198364,-1.3097867965698242
1772557393009684700,3.948684814453125,0.07824230194091797,0.9691269397735596,-1.3736958503723145
1772557393029581600,3.96858154296875,0.05684089660644531,1.0256223678588867,-1.4057787656784058
1772557393049478000,3.988477783203125,-0.014162063598632812,1.3159083127975464,-1.4293817281723022
1772557393069375000,4.008375,-0.27406787872314453,1.351726770401001,-1.1050424575805664
1772557393089272800,4.02827294921875,-0.4954185485839844,1.0162510871887207,-0.7972410321235657
1772557393109169700,4.048169677734375,-0.3814353942871094,0.8637748956680298,-0.742446780204773
1772557393129066000,4.06806591796875,-0.22174644470214844,0.7653888463973999,-0.46391117572784424
1772557393148963000,4.087963134765625,0.6296567916870117,0.9522018432617188,-0.15668010711669922
1772557393168861000,4.10786083984375,1.5442819595336914,1.4200727939605713,-0.07660306990146637
1772557393188757800,4.1277578125,2.3794326782226562,1.8561005592346191,-0.22262221574783325
1772557393208654000,4.147654052734375,2.771188735961914,1.423323392868042,-0.7365750670433044
1772557393228551200,4.16755126953125,2.67470645904541,0.7512884140014648,-1.2117351293563843
1772557393248449000,4.187448974609375,2.0197811126708984,0.19514775276184082,-0.9252864718437195
1772557393268345900,4.207345947265625,1.3312301635742188,-1.010637879371643,-0.36084312200546265
1772557393288242200,4.2272421875,0.6268234252929688,-1.895306944847107,0.21781305968761444
1772557393308139300,4.24713916015625,0.26967430114746094,-2.694387435913086,0.12573125958442688
1772557393328037000,4.267037109375,0.43817615509033203,-2.583038806915283,-0.1129610538482666
1772557393347934000,4.286933837890625,0.5263862609863281,-2.0068273544311523,-0.03092464804649353
1772557393367830300,4.306830322265625,0.45926380157470703,-1.0062464475631714,0.06866320967674255
1772557393387727400,4.326727294921875,-0.10190868377685547,-0.3934403657913208,0.10828317701816559
1772557393407625200,4.346625244140625,-0.5733585357666016,-0.1981487274169922,0.32251355051994324
1772557393427522000,4.36652197265625,-0.5823421478271484,-0.4595024585723877,0.3465770184993744
1772557393447418400,4.38641845703125,-0.5618906021118164,-0.8690142631530762,0.44007396697998047
1772557393467315500,4.4063154296875,-0.48359203338623047,-0.990493655204773,0.4498330354690552
1772557393487213300,4.42621337890625,-0.6239519119262695,-0.9974037408828735,0.39798736572265625
1772557393507110100,4.446110107421875,-0.8472585678100586,-0.9752111434936523,0.31629300117492676
1772557393527006500,4.46600634765625,-1.0511445999145508,-0.9067279100418091,0.2085738182067871
1772557393546903600,4.485903564453125,-1.2850351333618164,-0.9895651340484619,0.30276134610176086
1772557393566801400,4.505801513671875,-1.4983606338500977,-0.9435359239578247,0.2666398882865906
1772557393586698200,4.5256982421875,-1.530538558959961,-0.7117632627487183,0.284025102853775
1772557393606594600,4.545594482421875,-1.2577619552612305,-0.29824793338775635,0.35180214047431946
1772557393626491600,4.56549169921875,-0.8022327423095703,-0.05465435981750488,0.3733774721622467
1772557393646389500,4.585389404296875,-0.4381551742553711,0.12147235870361328,0.4039419889450073
1772557393666286600,4.60528662109375,-0.22986316680908203,0.3927180767059326,0.4256330132484436
1772557393686182700,4.6251826171875,-0.3137931823730469,0.5441441535949707,0.4976794421672821
1772557393706079700,4.645079833984375,-0.5847482681274414,0.6425225734710693,0.5416685342788696
1772557393725977600,4.6649775390625,-0.7391023635864258,0.7023041248321533,0.5679541826248169
1772557393745874400,4.68487451171875,-0.8461771011352539,0.7332785129547119,0.7422187328338623
1772557393765770800,4.704770751953125,-0.4922037124633789,0.6132988929748535,0.8060839772224426
1772557393785667800,4.724667724609375,-0.40762901306152344,0.31277012825012207,0.6069722771644592
1772557393805565700,4.744565673828125,-0.3444681167602539,0.28509998321533203,0.4939049482345581
1772557393825462800,4.764462890625,-0.15049171447753906,0.38778233528137207,0.6289910078048706
1772557393845358800,4.78435888671875,0.18820476531982422,0.5052307844161987,0.8261207342147827
1772557393865256000,4.804255859375,0.7822294235229492,0.881285548210144,0.6362909078598022
1772557393885153800,4.82415380859375,1.5113592147827148,1.7127141952514648,0.24827517569065094
1772557393905051000,4.84405078125,1.9033079147338867,2.1054890155792236,0.28101420402526855
1772557393924947000,4.863947021484375,2.1937942504882812,1.9224116802215576,0.42464596033096313
1772557393944844000,4.883843994140625,1.8490219116210938,1.08021879196167,0.49440839886665344
1772557393964742000,4.903741943359375,1.1694116592407227,0.06848669052124023,0.4801379144191742
1772557393984639000,4.923638916015625,0.7048301696777344,-0.7977064847946167,0.5027514100074768
1772557394004535000,4.94353515625,0.6479654312133789,-1.5978788137435913,0.33764612674713135
1772557394024432000,4.96343212890625,0.9639463424682617,-2.0750796794891357,0.43826088309288025
1772557394044330000,4.983330078125,1.1169319152832031,-2.0954413414001465,0.7104582190513611
1772557394064227000,5.00322705078125,0.5965204238891602,-1.7903363704681396,0.5961851477622986
1772557394084123100,5.023123046875,-0.15590572357177734,-1.6769657135009766,-0.005018327385187149
1772557394104020200,5.043020263671875,-1.0155839920043945,-1.5199806690216064,-0.6724331378936768
1772557394123918000,5.06291796875,-1.1831111907958984,-0.6926547288894653,-1.0589114427566528
1772557394143815200,5.082815185546875,-1.0082626342773438,-0.16044104099273682,-0.9291990399360657
1772557394163711200,5.102711181640625,-0.3059711456298828,-0.2296358346939087,-0.5775527954101562
1772557394183608300,5.1226083984375,0.3928813934326172,-0.5704294443130493,-0.33681100606918335
1772557394203506200,5.142506103515625,0.9061241149902344,-0.5954208374023438,-0.16948023438453674
1772557394223403300,5.1624033203125,1.0912694931030273,-0.2544252872467041,-0.07592741400003433
1772557394243299300,5.18229931640625,0.6967372894287109,-0.3352701663970947,0.052567362785339355
1772557394263196400,5.202196533203125,-0.162261962890625,-0.584923267364502,0.0060769617557525635
1772557394283094300,5.22209423828125,-0.8779201507568359,-0.7124828100204468,-0.12261753529310226
1772557394302991400,5.241991455078125,-1.5323820114135742,-0.6728520393371582,-0.2979492247104645
1772557394322887400,5.261887451171875,-1.7720623016357422,-0.5757098197937012,-0.4377916753292084
1772557394342784500,5.281784423828125,-1.555257797241211,-0.30698978900909424,-0.5454123020172119
1772557394362682400,5.301682373046875,-1.1850004196166992,0.003088235855102539,-0.5007128119468689
1772557394382579500,5.321579345703125,-0.7243175506591797,0.2030808925628662,-0.5451141595840454
1772557394402475800,5.341475830078125,-0.2711210250854492,0.5269359350204468,-0.8025050163269043
1772557394422372900,5.361372802734375,0.07013130187988281,0.8239461183547974,-1.0192031860351562
1772557394442270500,5.3812705078125,0.2945566177368164,0.9836033582687378,-1.151550054550171
1772557394462167600,5.40116748046875,0.14431285858154297,1.0578560829162598,-1.2153655290603638
1772557394482064000,5.42106396484375,-0.36212158203125,1.0232282876968384,-1.1778812408447266
1772557394501961000,5.4409609375,-0.6484079360961914,0.8643004894256592,-0.853205680847168
1772557394521858600,5.460858642578125,-0.8252248764038086,0.6188955307006836,-0.6128464937210083
1772557394541755600,5.480755615234375,-0.7073631286621094,0.41036009788513184,-0.5066921710968018
1772557394561652000,5.50065185546875,-0.5367469787597656,0.45413804054260254,-0.5323536396026611
1772557394581549000,5.520549072265625,-0.07247066497802734,0.6091446876525879,-0.46959275007247925
1772557394601447000,5.540447021484375,0.5800304412841797,0.7627146244049072,-0.4104345142841339
1772557394621343700,5.56034375,1.3894233703613281,0.9394885301589966,-0.3444361984729767
1772557394641240000,5.580239990234375,1.8911828994750977,0.7017126083374023,-0.568805992603302
1772557394661137200,5.60013720703125,1.842207908630371,0.6489603519439697,-0.9144744277000427
1772557394681035000,5.620034912109375,1.687631607055664,0.928290843963623,-0.9743943214416504
1772557394700931800,5.639931884765625,2.0287790298461914,0.5414113998413086,-0.7748368978500366
1772557394720828200,5.659828125,1.9580488204956055,-0.2047874927520752,-0.5108627676963806
1772557394740725200,5.679725341796875,1.701655387878418,-0.9308879375457764,-0.6202335357666016
1772557394760623000,5.699623046875,1.1122732162475586,-1.4721105098724365,-0.7626832723617554
1772557394780520200,5.719520263671875,0.22961139678955078,-1.6847224235534668,-0.7210765480995178
1772557394800416300,5.739416259765625,-0.4259014129638672,-1.4561660289764404,-0.4610046148300171
1772557394820313300,5.759313232421875,-0.6676187515258789,-1.2917271852493286,0.09230443835258484
1772557394840211200,5.779211181640625,-0.7668447494506836,-1.3617000579833984,0.5576015114784241
1772557394860108300,5.7991083984375,-0.5556888580322266,-1.0667387247085571,0.811783492565155
1772557394880004400,5.81900439453125,-0.29108238220214844,-0.8572505712509155,0.8008737564086914
1772557394899901400,5.8389013671875,0.21435070037841797,-0.7335637807846069,0.8023048043251038
1772557394919799300,5.85879931640625,0.3702993392944336,-0.5872383117675781,0.8729761242866516
1772557394939696400,5.8786962890625,0.09934043884277344,-0.07267940044403076,1.1300514936447144
1772557394959592400,5.898592529296875,-0.10234546661376953,0.07970595359802246,0.7501159906387329
1772557394979489500,5.918489501953125,-0.4742441177368164,-0.20320188999176025,0.32626086473464966
1772557394999387400,5.938387451171875,-0.8861417770385742,-0.4217536449432373,0.10517655313014984
1772557395019284500,5.958284423828125,-1.318039894104004,-0.5279498100280762,0.10010269284248352
1772557395039180500,5.9781806640625,-1.557535171508789,-0.494549036026001,0.3557087182998657
1772557395059077600,5.99807763671875,-1.4301261901855469,-0.29988551139831543,0.20993876457214355
1772557395078975500,6.0179755859375,-1.1410465240478516,-0.18400120735168457,-0.002343755215406418
1772557395098872600,6.03787255859375,-0.7879810333251953,-0.10405349731445312,-0.009199082851409912
1772557395118768600,6.0577685546875,-0.40175914764404297,0.1304241418838501,0.1315941959619522
1772557395138665700,6.077665771484375,-0.28612709045410156,0.41631031036376953,0.39040085673332214
1772557395158563600,6.0975634765625,-0.14920616149902344,0.6952437162399292,0.659561276435852
1772557395178460700,6.117460693359375,-0.16295719146728516,0.769385814666748,0.75609290599823
1772557395198356700,6.137356689453125,-0.1891040802001953,0.6477289199829102,0.8212863802909851
1772557395218253800,6.15725390625,-0.3761625289916992,0.4456930160522461,0.9289709329605103
1772557395238151700,6.177151611328125,-0.6003847122192383,0.3158069849014282,0.6808830499649048
1772557395258048800,6.197048828125,-0.7045660018920898,0.5395534038543701,0.7888123989105225
1772557395277945000,6.216945068359375,-0.8187694549560547,0.638725757598877,0.8352054357528687
1772557395297842200,6.23684228515625,-0.7534141540527344,0.747482180595398,0.7334043383598328
1772557395317740000,6.256739990234375,-0.4430990219116211,0.8250582218170166,0.6623419523239136
1772557395337636900,6.276636962890625,-0.1212930679321289,0.6851925849914551,0.6412711143493652
1772557395357533200,6.296533203125,0.27124786376953125,0.6988024711608887,0.653041422367096
1772557395377430300,6.31643017578125,0.8361358642578125,1.1069403886795044,0.7977232336997986
1772557395397328100,6.336328125,1.1799325942993164,1.3890341520309448,1.0216808319091797
1772557395417225000,6.356224853515625,1.2533493041992188,1.4323259592056274,0.9178365468978882
1772557395437121300,6.376121337890625,1.021728515625,0.8972928524017334,0.8832618594169617
1772557395457018400,6.396018310546875,0.6992597579956055,0.13121700286865234,0.8437192440032959
1772557395476916200,6.415916259765625,0.4090433120727539,0.06333565711975098,0.6916179060935974
1772557395496813300,6.435813232421875,0.781529426574707,-0.37405967712402344,0.7162224054336548
1772557395516709400,6.45570947265625,1.131880760192871,-0.7880206108093262,0.6869547963142395
1772557395536606500,6.4756064453125,1.4143590927124023,-0.7152523994445801,0.6990435123443604
1772557395556504300,6.49550439453125,0.9751043319702148,-1.0136120319366455,0.6191232800483704
1772557395576401400,6.5154013671875,0.3676881790161133,-1.5154826641082764,0.24539415538311005
1772557395596297500,6.53529736328125,-0.16518592834472656,-1.7133634090423584,-0.36352747678756714
1772557395616194600,6.555194580078125,-0.7376556396484375,-1.4380227327346802,-0.5880930423736572
1772557395636092400,6.575092529296875,-1.1283321380615234,-1.2295652627944946,-0.6414600610733032
1772557395655989500,6.594989501953125,-1.0677204132080078,-1.1498639583587646,-0.6595015525817871
1772557395675885600,6.614885498046875,-0.5462093353271484,-0.8926273584365845,-0.42034146189689636
1772557395695782700,6.63478271484375,0.17557811737060547,-0.7011817693710327,-0.16768282651901245
1772557395715680500,6.654680419921875,0.7620601654052734,-0.35871899127960205,-0.17197367548942566
1772557395735577600,6.67457763671875,0.8750848770141602,0.19756841659545898,-0.0008795410394668579
1772557395755473700,6.6944736328125,0.7583856582641602,0.5651382207870483,-0.01226409524679184
1772557395775370800,6.714370849609375,0.5041685104370117,0.3420281410217285,-0.15633058547973633
1772557395795268600,6.7342685546875,0.032512664794921875,-0.14047300815582275,-0.29709872603416443
1772557395815165700,6.754165771484375,-0.5628290176391602,-0.3171672821044922,-0.2820623517036438
1772557395835062000,6.77406201171875,-1.218709945678711,-0.3626002073287964,-0.36440855264663696
1772557395854959000,6.793958984375,-1.5385379791259766,-0.7124007940292358,-0.6119002103805542
1772557395874856700,6.813856689453125,-1.5400505065917969,-0.5243935585021973,-0.751993715763092
1772557395894753800,6.83375390625,-1.2903022766113281,0.054355621337890625,-0.6631231307983398
1772557395914650000,6.853650146484375,-1.0532112121582031,0.4357041120529175,-0.4731220602989197
1772557395934547200,6.873547119140625,-0.5815343856811523,0.6457102298736572,-0.6666423082351685
1772557395954444800,6.89344482421875,-0.23726367950439453,0.8407222032546997,-0.8777381777763367
1772557395974342000,6.913341796875,0.03125572204589844,1.0419501066207886,-1.0029140710830688
1772557395994238200,6.93323828125,-0.03429889678955078,1.1530705690383911,-0.9794890880584717
1772557396014135300,6.95313525390625,-0.14783668518066406,1.2720681428909302,-0.7412139177322388
1772557396034033200,6.973033203125,-0.24176692962646484,1.1432311534881592,-0.5199300646781921
1772557396053930200,6.99293017578125,-0.17219829559326172,0.8619036674499512,-0.4189867079257965
1772557396073826300,7.012826416015625,-0.2073535919189453,0.5279124975204468,-0.43895602226257324
1772557396093723400,7.032723388671875,-0.13970279693603516,0.2541133165359497,-0.5317046046257019
1772557396113621200,7.052621337890625,0.08259296417236328,0.2973599433898926,-0.6952648162841797
1772557396133518300,7.072518310546875,0.37617015838623047,0.6782534122467041,-0.42796334624290466
1772557396153414400,7.092414306640625,0.5162868499755859,0.8029265403747559,-0.22643041610717773
1772557396173311500,7.1123115234375,0.6105022430419922,0.47324705123901367,-0.5354337096214294
1772557396193209300,7.132209228515625,0.9986000061035156,0.8120442628860474,-0.5908372402191162
1772557396213106400,7.1521064453125,1.8878860473632812,0.7742631435394287,-0.21393296122550964
1772557396233002500,7.17200244140625,2.491072654724121,0.390866756439209,-0.1297898292541504
1772557396252899600,7.191899658203125,2.607807159423828,0.024974465370178223,-0.44104647636413574
1772557396272797400,7.21179736328125,1.8457670211791992,-0.5116969347000122,-0.8349111676216125
1772557396292694500,7.231694580078125,1.0517663955688477,-0.7895947694778442,-1.086524486541748
1772557396312590600,7.251590576171875,0.38259029388427734,-1.0456215143203735,-0.9248540997505188
1772557396332487700,7.27148779296875,-0.33786582946777344,-1.1552464962005615,-0.2601046860218048
