time,seconds_elapsed,z,y,x
1772558222623861200,0.064861328125,2.9085341613292695,1.0228667643960565,1.1927776331167668
1772558222643773400,0.0847734375,3.4251252550840374,1.8875446620471774,1.5825073838695882
1772558222663684000,0.10468408203125,4.300772948104143,2.561971717455983,1.464128549465537
1772558222683596000,0.124595947265625,4.796409516635537,2.4850734789535402,1.3308704180985689
1772558222703507200,0.144507080078125,5.043503286018967,1.6622874614186585,1.3517884107038378
1772558222723419100,0.164419189453125,4.490697554066777,1.2317116863407194,0.9972362832508981
1772558222743331000,0.1843310546875,2.4404303273677823,0.1753785230094567,0.11044226925112306
1772558222763242200,0.2042421875,-0.4651835626006126,-3.0231586116358637,-2.742172509522736
1772558222783154200,0.224154296875,-4.688133266311883,-5.706790084862709,-5.504292413052916
1772558222803065300,0.2440654296875,-8.619130068215727,-5.450379036557674,-4.9067812779337165
1772558222822977300,0.263977294921875,-8.198190136489272,-3.020129326942563,-3.0245015506774187
1772558222842889200,0.28388916015625,-6.853399914109707,-1.8148580498903988,-0.621076354297623
1772558222862800100,0.303800048828125,-8.126080593568085,-1.562411375171691,1.2297861251056195
1772558222882712000,0.323712158203125,-8.573109490796924,-1.709529543456435,1.7025936067134142
1772558222902623200,0.343623291015625,-12.356736633872986,-0.9216483966946601,0.8111008404381572
1772558222922535200,0.36353515625,-13.754693213772773,-0.37842217479683454,-2.0539242879018187
1772558222942447000,0.383447021484375,-10.751372982811928,-3.1258617380023,3.0720220112651586
1772558222962358300,0.403358154296875,-5.709963454201818,0.02176635306291282,0.7454971722796558
1772558222982270200,0.423270263671875,-1.5277350524574518,1.0622438852123917,0.7295184627074748
1772558223002181000,0.44318115234375,0.9167372437775134,1.7652090528413653,0.6323317616749554
1772558223022093000,0.463093017578125,3.872416602641344,2.381998158273846,0.5873864122722298
1772558223042005000,0.4830048828125,6.0832940780133,3.3512337971821426,0.5294467759355902
1772558223061916000,0.502916015625,7.215511809292435,2.7866984644696116,-0.3170471571840346
1772558223081827800,0.522827880859375,8.936080633157491,1.3498209100231529,-2.1930483886927363
1772558223101739800,0.54273974609375,12.200529004073143,1.4203575045391916,-2.975948824432492
1772558223121651000,0.56265087890625,13.267151688891648,1.9980941179998217,-2.6683339508518573
1772558223141563000,0.58256298828125,11.691347309792041,2.0729852544635534,-1.9111438565604388
1772558223161474000,0.60247412109375,10.977374864327906,1.932807114575058,-1.0577616252318025
1772558223181386000,0.622385986328125,9.792040459889172,2.2541003848962484,-0.3740525083452463
1772558223201298000,0.6422978515625,9.96234091244936,1.9595656499020755,-0.5261197138721123
1772558223221209000,0.662208984375,9.723900989642738,2.8919477681875225,0.05349040184281766
1772558223241121000,0.68212109375,8.07414991532266,2.4748376238822933,0.7938792181327938
1772558223261032000,0.702031982421875,7.063675234183669,1.6925466983430086,-0.25146416648738085
1772558223280943900,0.72194384765625,3.471757242399454,0.1720714077554643,0.5285701392315327
1772558223300855800,0.741855712890625,-2.754897258800268,-0.1530569106839597,0.3396629301505163
1772558223320767000,0.76176708984375,-10.787131693935393,1.7159977165572344,1.794037526310235
1772558223340679000,0.781678955078125,-13.248340605437754,-0.3326723040781915,1.113327298978716
1772558223360590000,0.801590087890625,-8.402858138075471,-4.779093932436406,-2.0389745560511945
1772558223380502000,0.821501953125,-9.926600906026362,-6.706216717764735,-2.8728394553527234
1772558223400414000,0.8414140625,-14.940852963119744,-6.005494799017906,-1.3775450755119323
1772558223420325000,0.8613251953125,-17.245974656331537,-4.544112041129171,0.0010849274261854587
1772558223440237000,0.881237060546875,-14.479303957629202,-4.336405987021327,-0.005944313623476773
1772558223460148200,0.901148193359375,-11.721679319691658,-2.9994156247377393,1.1444418375581502
1772558223480060200,0.92106005859375,-9.834159938216208,-0.6269857975371181,2.657333248887956
1772558223499971800,0.940971923828125,-5.807016884243488,2.1072271312832833,3.4832536189258096
1772558223519883000,0.960883056640625,-0.8501338970571756,3.5423707015439865,3.2724767790704963
1772558223539795000,0.980794921875,3.5805905420839785,3.5109254697054624,2.066505683185905
1772558223559705900,1.000705810546875,6.800640383824706,3.0665181531518697,0.49397301923334597
1772558223579618000,1.0206181640625,8.517413907060027,2.5770833618700504,-1.017030021066591
1772558223599530000,1.040530029296875,9.962719682633876,1.729444934890419,-2.6531466108530757
1772558223619441200,1.060441162109375,12.454942156559229,2.0920685789875684,-2.3741256713330743
1772558223639353000,1.08035302734375,9.937698638623953,1.7590714268691836,-3.118333096063137
1772558223659264000,1.100263916015625,9.069306615820526,1.9770418314903973,-2.2458894597813486
1772558223679176200,1.12017626953125,8.632634861955045,2.538704239115119,-1.5803569278374314
1772558223699088100,1.140088134765625,9.75619933117926,2.4069570968329903,-1.314547644329071
1772558223718998800,1.159998779296875,10.257250910496712,2.5385925954341886,-0.7303283908508718
1772558223738911000,1.179910888671875,9.658981650486588,2.518715051792562,-0.26298005143180486
1772558223758822000,1.19982177734375,6.8785781945079565,2.7774022283360362,0.9327223100252449
1772558223778734000,1.219734130859375,4.888043844237924,2.15958874829188,0.9074717681083828
1772558223798646000,1.23964599609375,3.905035262173414,1.7215397147238254,1.6137959638416766
1772558223818557000,1.259556884765625,0.09674129535257815,0.11962298924624919,1.184854365836829
1772558223838469000,1.27946923828125,-6.874288388359546,-2.766663976700604,-0.21005627049580214
1772558223858380000,1.299380126953125,-13.307587744176386,-3.418423711618781,-3.104385234731436
1772558223878292000,1.3192919921875,-17.65673572387099,-5.0731543279170985,-4.685425176396966
1772558223898204200,1.3392041015625,-16.402981863200665,-8.83210938655138,-6.690853144416213
1772558223918114800,1.35911474609375,-12.636465429401397,-9.476224451935291,-4.257655106389523
1772558223938027000,1.379027099609375,-8.194862453371286,-7.10850747860074,-2.3843457443132996
1772558223957938000,1.39893798828125,-8.747510948935151,-3.3690631761223075,-1.7561504248559474
1772558223977849900,1.418849853515625,-11.662167977058887,-0.3963438351303339,-0.6919054289542138
1772558223997762000,1.438761962890625,-8.299380227944255,2.7173276988625523,1.556464157205075
1772558224017672700,1.458672607421875,-1.2123071670383214,3.9146374955162404,2.8416262787044047
1772558224037585000,1.4785849609375,3.5038474941432476,4.3073081950917835,2.988675911797583
1772558224057495800,1.498495849609375,5.650907454121112,3.068623016476631,2.880486755235493
1772558224077407700,1.51840771484375,6.083837683370709,0.5773989059388637,0.22606522907577453
1772558224097320000,1.53831982421875,6.840445155468583,-1.157873858322203,-2.112428060927242
1772558224117230800,1.55823095703125,9.80571593402028,-0.09454035124219953,-2.0806099041230977
1772558224137142800,1.578142822265625,11.68185584334731,0.96075546839796,-0.7100315988838672
1772558224157054000,1.598053955078125,11.267014813017845,2.4715084794595836,0.2994539250873029
1772558224176966000,1.6179658203125,11.160779128611088,3.5541873960658905,0.1766645807646215
1772558224196878000,1.637878173828125,11.446374185824393,3.2497885619223115,-0.7448585821151733
1772558224216788700,1.657788818359375,10.478923822897672,2.707785671274364,-1.591602690603584
1772558224236700700,1.67770068359375,8.99952989976108,2.099353475298732,-2.7255855318590996
1772558224256611800,1.69761181640625,8.588827868932485,1.1778928562611342,-3.0071330672472714
1772558224276523800,1.717523681640625,7.687730677357315,0.3806573134377599,-2.9027114465251564
1772558224296435700,1.737435791015625,4.371371501940488,-0.3555206802241504,-1.0055585597857832
1772558224316347000,1.757346923828125,-0.7176257072746753,-1.6342438547171652,0.10969747876580804
1772558224336258800,1.7772587890625,-8.20485017890036,-0.3579134205795824,1.6321856070131062
1772558224356170000,1.797169921875,-15.553782616645098,0.7803779315248132,2.695843596807122
1772558224376082000,1.81708203125,-17.902301553034782,-3.093099286085367,-2.1108874073565005
1772558224395993900,1.836993896484375,-20.121415526354312,-8.166920553478597,-5.938813710886239
1772558224415904800,1.85690478515625,-17.621600113081932,-9.002567075499892,-5.599011847189068
1772558224435816700,1.876816650390625,-14.659402166104316,-6.265493642681837,-3.828124748711288
1772558224455729000,1.89672900390625,-13.677010254633426,-0.9991153019305318,0.1841951954651624
1772558224475639800,1.916639892578125,-11.170021588730812,2.2800302143141624,3.9279099418044088
1772558224495551700,1.9365517578125,-7.092174183437228,5.505363257154822,4.450886644943059
1772558224515463000,1.956462890625,-2.294360645222664,2.2500226140633224,5.123939343258738
1772558224535374800,1.976374755859375,1.3908932173848152,2.929418836186826,2.1948107221901414
1772558224555286800,1.996286865234375,4.252255877694488,0.5724200946129858,-0.26967531128674743
1772558224575198000,2.016197998046875,7.354563137108087,0.387452234274894,-2.1612974519059063
1772558224595110000,2.03610986328125,9.939806424558162,4.609329486449062,-0.6757333157017826
1772558224615020800,2.056020751953125,13.33042852153778,6.883394070357084,0.9150714294571429
1772558224634932700,2.0759326171875,16.143931114041806,6.2085553654074666,0.4720899809882044
1772558224654844700,2.0958447265625,15.90223481978774,4.455525410659611,-0.7873805037632584
1772558224674755800,2.115755859375,15.853682093542814,3.7851103673711415,-1.5592024961277842
1772558224694667800,2.135667724609375,10.8591833691895,3.9767444076001643,-1.5666875911861657
1772558224714579000,2.155578857421875,7.199241057971119,3.0174709213882682,-1.8925405706383287
1772558224734491000,2.175490966796875,7.1570660500645635,2.049807792493701,-3.0345968282341955
1772558224754402800,2.19540283203125,5.649405817386508,0.9086062520310282,-2.0578540285661817
1772558224774314000,2.21531396484375,5.318234419390559,-0.0973106196731329,-1.1614221253883092
1772558224794226000,2.235225830078125,4.058394516804814,-0.2534717799827456,-0.40814905841015275
1772558224814136800,2.25513671875,-0.23457798668146132,-0.21386253091096877,1.482373815730214
1772558224834048800,2.275048828125,-8.364326455107332,-2.6383412559092045,0.3237402250818908
1772558224853960700,2.294960693359375,-16.816435238564015,-1.787608954567462,-1.4856030069097876
1772558224873872000,2.314871826171875,-23.66964576758146,-3.568502337144315,-1.5773635912403463
1772558224893783800,2.33478369140625,-20.115303765475748,-7.702236757093668,-3.478903899283707
1772558224913695000,2.354695068359375,-11.626838305002451,-7.674380197396874,-2.502060854111612
1772558224933607000,2.37460693359375,-9.063074443432688,-4.742082590903341,0.1390886276187375
1772558224953518800,2.394518798828125,-11.05293717805147,-1.2808102099001406,2.5719597352460024
1772558224973430000,2.414429931640625,-10.29022612838149,0.8341326103270054,3.671653791800141
1772558224993343000,2.434343017578125,-5.410756635743379,1.9009965565554796,3.0513731909900903
1772558225013253600,2.454253662109375,0.5014356101989745,5.036657365646958,4.0729838909104465
1772558225033165600,2.47416552734375,4.041920936387777,4.966213710111379,3.3110891260594126
1772558225053077800,2.494077880859375,6.315044147792459,0.7667137094400822,-0.9127290310494601
1772558225072988700,2.51398876953125,9.617995560103655,-2.097229468882084,-4.258235828886926
1772558225092900900,2.53390087890625,9.874599500632286,-0.6130749072149395,-3.7105344343364237
1772558225112811800,2.553811767578125,8.29012140121162,0.6037329687761143,-2.486421678692102
1772558225132723700,2.5737236328125,8.375457505452632,0.9455644751373677,-2.2003781470589336
1772558225152636000,2.593635986328125,10.042707996106147,0.9168288675837218,-2.1259460064090785
1772558225172546800,2.613546875,10.894029057121276,1.3033712935373187,-2.062387288081646
1772558225192458800,2.633458740234375,10.280968470692635,1.2112487440265713,-1.956086283353716
1772558225212371000,2.653370849609375,9.443821480980516,1.6447107420653104,-2.0054605551145968
1772558225232281600,2.673281494140625,8.584038296568393,1.8323299936950206,-1.9290227737307548
1772558225252193800,2.69319384765625,6.675366821470856,1.5398746953234075,-1.6689887126229703
1772558225272104700,2.713104736328125,5.260870610180497,0.06214855926856398,-1.932516607195884
1772558225292016600,2.7330166015625,3.9374797341823577,-1.1656021144866944,-1.141178744108975
1772558225311928800,2.7529287109375,-0.2957932106226682,-1.7331547491937875,-0.6418355030793697
1772558225331839700,2.77283984375,-7.277964466074109,0.014078209713101386,0.6734018040142953
1772558225351751700,2.792751708984375,-13.379303903865813,-0.1309928167834878,0.29218104800749567
1772558225371662800,2.812662841796875,-15.232338831937312,-2.5071155071526765,-2.1033000209674237
1772558225391574800,2.83257470703125,-16.822214991009233,-7.706029135113954,-5.014073193395138
1772558225411487000,2.852487060546875,-12.944829952305554,-8.286804824009538,-3.1939363263189793
1772558225431397600,2.872397705078125,-8.998698709633945,-4.118295735538005,0.44694085361920294
1772558225451309600,2.8923095703125,-9.652290628415345,-2.3470612849272787,3.041466129481792
1772558225471220700,2.912220703125,-9.77925228998661,-2.1458156590051947,2.1687201492525636
1772558225491132700,2.932132568359375,-10.19626891078949,-0.8179740872085094,1.4106142552904783
1772558225511044900,2.952044921875,-6.987686219480634,1.0888140583604573,1.0391847889252006
1772558225530955800,2.971955810546875,-1.6565443877220152,3.1496459336936473,1.675982078641653
1772558225550867700,2.99186767578125,3.4977427475273606,2.2156756694339212,0.42956740175299346
1772558225570779000,3.01177880859375,6.7957099416852,1.1657178498208522,-1.0770470481991767
1772558225590690800,3.03169091796875,8.106575098109245,2.056033681271225,-1.491448810328543
1772558225610602800,3.051602783203125,9.250641672614217,4.514735432258248,-0.20073369434457272
1772558225630513700,3.071513671875,10.110203907752036,4.268887279021739,-0.022433767463080585
1772558225650425600,3.091425537109375,11.816451360797881,3.3760511353135105,-0.5559452720869332
1772558225670336800,3.111336669921875,14.7327643394351,3.6442397151738404,-0.5263017559081316
1772558225690248700,3.131248779296875,12.905623731076716,3.5760137356877326,-0.691699969509989
1772558225710160600,3.15116064453125,9.687349082314968,3.1320451028123495,-1.0207344285424798
1772558225730071800,3.17107177734375,8.084718655610084,2.842370375069976,-1.3036200076013802
1772558225749983700,3.190983642578125,7.108641918635368,2.018720141921192,-1.7074318405248223
1772558225769895000,3.21089501953125,5.838191774708032,0.8230356083817779,-1.872354253308475
1772558225789806800,3.230806884765625,6.348902578252553,0.36683541657328606,-1.1160646149881184
1772558225809718800,3.25071875,2.6345085458785293,0.2797596290580928,0.5807363797985017
1772558225829629700,3.270629638671875,-2.9953719023048877,0.0062993924051523206,0.9106607734080403
1772558225849541600,3.290541748046875,-7.986133193695545,-1.3259480131350456,0.33196393661312756
1772558225869453600,3.31045361328125,-12.436500490939617,-3.3175276346743106,-1.2030617112439126
1772558225889364700,3.33036474609375,-16.860706926488874,-4.942885441493988,-3.985277258145809
1772558225909276700,3.350276611328125,-20.654988150048254,-5.439250908821821,-3.351939315102994
1772558225929187800,3.370187744140625,-18.654025929266215,-6.0326610383629795,-2.2456302243232726
1772558225949099800,3.390099853515625,-15.699542502188681,-4.593601171441376,-0.4695453745393082
1772558225969011700,3.41001171875,-13.174386895954608,-2.0973593788720666,1.6435332227185369
1772558225988923000,3.4299228515625,-10.383481919705867,0.39215902372635897,2.6405995562300086
1772558226008834000,3.449833984375,-4.99237866345942,1.8843755304917693,2.726952144037187
1772558226028745200,3.4697451171875,1.929910077959299,3.805401167988777,2.792245869463682
1772558226048657200,3.4896572265625,6.449193090519309,3.7290696234583853,2.018582048624754
1772558226068569000,3.509569091796875,8.858322270694375,3.0536826369762418,0.4504155439924448
1772558226088480300,3.529480224609375,11.048674844431876,2.0535281281910835,-1.2767223560646175
1772558226108392200,3.54939208984375,11.768567327594756,1.8545282353691757,-2.4067107208564877
1772558226128303400,3.569303466796875,11.081033976244926,1.5813276725657284,-2.6121789329096674
1772558226148215300,3.58921533203125,11.390751082801819,1.3747823328003286,-2.3316186549931763
1772558226168127200,3.609127197265625,11.814637004852294,1.461728502586484,-1.7254799767822027
1772558226188038400,3.629038330078125,10.553521675503253,2.094152253393829,-0.9251827813658863
1772558226207950000,3.6489501953125,8.311859770289063,2.3001073721811176,-0.7596469128590077
1772558226227861200,3.668861328125,7.253395842006802,2.193427012746781,-0.7781651508461683
1772558226247773200,3.688773193359375,7.172483983948826,1.9682085366934536,-0.9655618457663804
1772558226267685000,3.70868505859375,7.73153182516098,1.1936337384894489,-1.0000588663909584
1772558226287596300,3.72859619140625,7.136324290809035,0.8386626549720764,-0.5906464369814842
1772558226307508200,3.74850830078125,3.3699119019061325,0.4452741625159979,0.1621422805458307
1772558226327419400,3.76841943359375,-3.2040532311856746,0.643619098560512,1.7490104899734258
1772558226347331300,3.788331298828125,-9.8495819637537,0.9141418204568326,2.0286483923479914
1772558226367243300,3.8082431640625,-12.94916359759569,-0.33993732664510606,-0.2822923989387229
1772558226387154400,3.828154541015625,-15.852006853806971,-4.178446545118093,-4.271793521857261
1772558226407066400,3.84806640625,-17.493553578883407,-8.88412482047081,-8.016303291031718
1772558226426977300,3.867977294921875,-13.731111262655258,-8.522779818007349,-5.688538973379135
1772558226446889200,3.88788916015625,-10.342761786782741,-3.6571103026628493,-0.5294780113240704
1772558226466801200,3.90780126953125,-11.113044733011723,-1.8165416190631687,2.035642781279981
1772558226486712300,3.92771240234375,-10.384411309510469,-0.3432923361614346,2.6843083495751023
1772558226506624300,3.947624267578125,-8.579513512620329,1.4418417527250944,4.01899481883049
1772558226526535200,3.96753515625,-3.2936668666154145,1.1981779577903449,2.9240654924601315
1772558226546447400,3.987447265625,1.5993419065535068,1.3856655458644032,1.8350456823945045
1772558226566359300,4.007359375,4.1395910370230675,1.8643134240634738,1.0558792455513029
1772558226586270200,4.027270263671875,6.351371598714589,2.4125771286718547,0.42099509597979484
1772558226606182400,4.047182373046875,8.311402674171328,1.8352387207485734,-0.63193406759426
1772558226626093000,4.067093017578125,9.583231705236434,1.0985251589052378,-1.8655103787630796
1772558226646005200,4.087005126953125,9.790533562457561,0.8933874939806759,-2.27261628479585
1772558226665917200,4.106917236328125,9.653739658179878,1.8477188476152717,-2.006164027208835
1772558226685828000,4.126828125,10.553065748429297,2.829626628831029,-1.2368705304086207
1772558226705740300,4.146740234375,11.606542535948753,2.927747395843267,-1.4032603853963315
1772558226725651200,4.166651123046875,12.217606395602225,1.8024281919062137,-1.7746787458457052
1772558226745563400,4.1865634765625,9.943751947313547,1.3338941498339176,-2.0696363824270665
1772558226765475300,4.206475341796875,7.272354809498786,1.335970956107974,-1.7401180123351514
1772558226785386200,4.22638623046875,5.45174798682332,1.1698033655688167,-1.402791306579858
1772558226805298400,4.24629833984375,4.403155464214087,-0.10856317750625312,-1.5825596985787151
1772558226825209000,4.266208984375,2.577920981737971,-1.5332465093553065,-0.8980851502776145
1772558226845121000,4.28612109375,-3.2949837944328784,-1.435954009860754,1.3233040744975209
1772558226865033200,4.306033203125,-9.456220943826436,-1.9811605188556014,2.335969397548586
1772558226884944100,4.325944091796875,-10.967186647790669,-2.3077388899728652,0.27913660178892313
1772558226904856300,4.345856201171875,-16.84937655417919,-2.9435952455773946,-1.3270285018481314
1772558226924767200,4.365767333984375,-22.571759344971177,-4.003445952042937,-2.0090975964426994
1772558226944679200,4.38567919921875,-17.64202096982002,-4.162046906720102,-1.9711298309676348
1772558226964591400,4.40559130859375,-12.990472928583621,-4.237735769432783,-1.9387404501467942
1772558226984502300,4.425502197265625,-14.19095930944681,-1.2351473598778246,0.04766776010394096
1772558227004414500,4.44541455078125,-13.894692051571607,2.7205168502926824,2.916324669075012
1772558227024325400,4.465325439453125,-6.918367768582701,3.81367565985918,4.512038740520179
1772558227044237300,4.4852373046875,3.4511937623202797,3.2237180088594553,4.006903983542323
1772558227064149500,4.5051494140625,9.685302086657286,2.8345485954031346,2.5858354081243276
1772558227084060400,4.525060302734375,10.623937858510017,1.461622557993978,0.4586721348799765
1772558227103972400,4.544972412109375,9.877882175564766,0.7925100486714393,-1.8051869890950618
1772558227123883500,4.564883544921875,9.810783738803863,1.1684456673495471,-2.9470483086407184
1772558227143795500,4.58479541015625,10.726645368790626,1.4349062543734907,-3.8646138199359177
1772558227163707400,4.604707275390625,11.455866821312904,1.352930420345813,-4.181875935044885
1772558227183618600,4.62461865234375,12.281468919181822,1.0687378503415732,-4.2493686318203805
1772558227203530500,4.644530517578125,11.86162321243286,1.4309260986961423,-3.5929853287547826
1772558227223441700,4.664441650390625,10.300285750102995,2.1613855685807764,-2.655505741199851
1772558227243353300,4.684353271484375,8.175597780930996,1.88916685642153,-2.915715012744069
1772558227263264500,4.704264404296875,7.751845129871368,0.18356690749898552,-3.0295369144961235
1772558227283176400,4.724176513671875,6.634708647868037,0.5812400915369391,-1.5440931898012757
1772558227303088400,4.74408837890625,2.5405215176701543,1.13482849829942,0.7351791918829083
1772558227322999600,4.76399951171875,-2.29477740933001,0.2349316954899579,1.5721799049921332
1772558227342911500,4.783911376953125,-3.918670404294133,1.7337343026474117,2.7130007755741476
1772558227362822700,4.80382275390625,-5.934369590958952,2.8341280319035054,3.1968577667236326
1772558227382734600,4.823734619140625,-11.264912872302531,0.9645677932277321,0.9121214936103671
1772558227402646500,4.843646484375,-16.750003156757355,-3.997622068195045,-3.351287573195994
1772558227422557700,4.8635576171875,-18.81676734474897,-8.603004278323054,-5.953299332356453
1772558227442469600,4.8834697265625,-16.735047579687834,-7.352649412441253,-2.689666953998804
1772558227462380300,4.90338037109375,-14.04013863338232,-2.0806723018348214,2.868310287490487
1772558227482292500,4.92329248046875,-12.684943336844443,1.977946963636577,6.777608467805385
1772558227502204400,4.943204345703125,-9.91427801554799,2.9990742639541623,7.3873039617151015
1772558227522115600,4.963115478515625,-5.2328895473212,4.237661535152792,7.1879428343653675
1772558227542027500,4.983027587890625,1.3879396282762289,5.49607871145904,6.414806252270936
1772558227561938400,5.0029384765625,5.893467087206244,3.9209310427024957,3.442840359994769
1772558227581850600,5.0228505859375,6.5092684967756265,0.569753286556527,-1.0229841802306472
1772558227601762600,5.042762451171875,6.640573740509152,-1.0644708405468613,-4.907202133694291
1772558227621673500,5.062673583984375,8.159747885370255,-0.19577800816595553,-6.15672054875195
1772558227641585700,5.082585693359375,10.257356124436855,-0.42103900818675755,-6.688007107335329
1772558227661496300,5.102496337890625,11.563790604937076,0.24636662415266036,-5.339724366664886
1772558227681408500,5.122408447265625,13.03697047586441,1.908837187053263,-3.1715006226271387
1772558227701320400,5.142320556640625,12.904782019555569,3.076207772517204,-1.7371391426548362
1772558227721230600,5.162230712890625,11.794714160764217,3.2364445117026563,-1.4778060694232582
1772558227741142500,5.182142578125,10.933842012071608,2.8830618664205074,-1.4516614282108842
1772558227761053400,5.202053466796875,10.01526586242914,2.5944500917345286,-0.7741717703610658
1772558227780965600,5.221965576171875,7.971236653336882,1.5886314197078346,-0.3682517131119966
1772558227800877600,5.241877685546875,5.776514778473973,0.3918940891798585,-0.1447781810298562
1772558227820788500,5.26178857421875,0.8439122460633516,-0.6081674075596034,0.8528136376604437
1772558227840700400,5.281700439453125,-7.649093780449032,-1.6652473341375589,0.19122012566588817
1772558227860611300,5.301611328125,-14.233622393131256,-1.6632016536541283,-1.7951292670696972
1772558227880523500,5.3215234375,-14.19071848642826,1.8974518696859477,-0.027548589726164936
1772558227900435500,5.341435546875,-14.930982726490496,0.8354908200029283,1.5540283083602786
1772558227920346600,5.3613466796875,-15.104251381206511,-3.1449156903013584,0.2701777809161693
1772558227940258600,5.381258544921875,-14.156386008715629,-4.722679386775195,0.1158162904396653
1772558227960169500,5.40116943359375,-16.370137578219175,-4.69669943460524,-1.2724182291299104
1772558227980081700,5.42108154296875,-18.408890308213234,-2.6313459901943803,-2.0703087287306783
1772558227999992000,5.440991943359375,-14.163795408189296,1.7275784103661775,1.5419041553243993
1772558228019904300,5.460904296875,-5.4026352886080735,3.0586946199193594,2.8563571071073413
1772558228039816200,5.480816162109375,4.148263588300347,3.4448332873776555,3.4875673904716966
1772558228059727000,5.50072705078125,8.262823644441365,4.059707060708106,3.9951854886978864
1772558228079639300,5.520639404296875,8.441564008566736,4.441766642159223,2.1000160308606923
1772558228099551200,5.54055126953125,9.179047093477845,2.667444600796699,-0.7906824679180979
1772558228119462000,5.5604619140625,11.554730515646934,0.07882635702081024,-4.492618877518177
1772558228139374000,5.5803740234375,13.25823539198637,-0.05281418308168649,-5.561960758167505
1772558228159286000,5.6002861328125,12.806924871915578,0.6899221461825072,-5.070825592708587
1772558228179197200,5.620197265625,11.131833604633808,1.5328545874282717,-4.117286850756407
1772558228199109000,5.640109130859375,10.652607488155365,2.6480723763287064,-2.957045094259083
1772558228219020000,5.66002001953125,10.761695639383792,3.406466731843352,-1.9431047828361392
1772558228238932200,5.67993212890625,10.49140453428626,3.832227215594053,-1.492821559986472
1772558228258844200,5.69984423828125,9.577830138453841,3.077028441250324,-1.3147706394299865
1772558228278755000,5.719755126953125,8.153995605453849,1.157332883313298,-1.492820098681748
1772558228298667300,5.739667236328125,6.1742889386683695,-1.6587798916891217,-0.5310074493810534
1772558228318578000,5.759577880859375,1.8860124840438366,-2.6602827463433143,-0.6067044954001903
1772558228338490000,5.779489990234375,-5.675429316437244,-2.1239888809919356,0.9828664701800793
1772558228358402000,5.799402099609375,-13.409854524952172,-0.626123116293177,1.2078357207126915
1772558228378313000,5.81931298828125,-16.763412088906765,1.1815259520664811,1.9648384757384656
1772558228398225200,5.83922509765625,-16.843486911618708,0.0640247649366036,-0.05540507635772228
1772558228418136000,5.859135986328125,-17.82102495331764,-3.9885754229083656,-3.56806394572705
1772558228438048000,5.879048095703125,-17.314634935581683,-5.031334124797582,-3.8391622755542394
1772558228457960200,5.898960205078125,-13.9659113676548,-3.0848695101395247,-1.5545909106791018
1772558228477871000,5.91887109375,-9.81291373656988,0.7057268143620341,0.7778065466668457
1772558228497783300,5.938783203125,-7.828692222708463,2.9650150502249595,5.647189310380816
1772558228517694000,5.95869384765625,-5.9306263127774,1.4795032287299632,4.254970981872082
1772558228537606000,5.97860595703125,-2.5603648667812346,-0.04186563143013045,3.1963232214555144
1772558228557518000,5.99851806640625,1.3627496574401854,1.4881905391849577,2.5992647985398767
1772558228577429000,6.018428955078125,2.747140068802237,2.7605852413088083,1.3176983634449542
1772558228597341200,6.038341064453125,4.016268024215102,1.4991265053495764,-0.6506621489398181
1772558228617252000,6.058252197265625,6.997938733425736,0.5478775548350066,-2.7300211762189863
1772558228637164000,6.0781640625,10.476792656087875,0.3163446349378675,-3.7479134401381016
1772558228657076200,6.098076171875,12.22442192083597,1.2123879041243344,-3.2685043683081862
1772558228676987100,6.117987060546875,12.686512193596363,2.8866049458548426,-1.9049045237794517
1772558228696899000,6.137899169921875,12.439189291632175,3.390037867350876,-1.136291118197888
1772558228716810200,6.157810302734375,11.748778923541307,2.854498035237193,-1.886746059015393
1772558228736722000,6.177721923828125,11.689729353201388,1.1044001884184778,-2.661257436594367
1772558228756634000,6.197634033203125,8.812736577561497,0.3684426325742155,-2.462594520641863
1772558228776545000,6.217544921875,6.508644811919331,0.2936361056540161,-2.0698890420138834
1772558228796457000,6.23745703125,6.216395557513833,0.5628809896342456,-1.4990816432945429
1772558228816368000,6.2573681640625,5.839187215486168,0.6093782446540892,0.047545448898524044
1772558228836280000,6.277280029296875,5.1143216200858355,-0.9559428804844617,0.5324572828631848
1772558228856192000,6.29719189453125,0.6057189914941787,-1.7863786821201442,0.7941940562356263
1772558228876103200,6.317103271484375,-6.041734571656584,-0.8353785187348723,0.7794619857236742
1772558228896015000,6.33701513671875,-10.08977837483883,-2.5124422551333905,-1.176671132446453
1772558228915926300,6.35692626953125,-15.73578285934925,-4.292404932731389,-4.421335848549008
1772558228935838200,6.376838134765625,-23.51815406038761,-3.9431250465929506,-2.963285449953377
1772558228955750100,6.396750244140625,-21.46565688267946,-3.139007050779462,0.8294906297400594
1772558228975661000,6.4166611328125,-15.251120689296721,-2.850840681773424,4.483588891105353
1772558228995574000,6.436573974609375,-11.340402705311774,-2.52367939620167,4.542037865203619
1772558229015485000,6.45648486328125,-9.156385179814695,-1.1463916564516723,3.7982849062427877
1772558229035396900,6.47639697265625,-5.750856605604291,-1.0252614775128661,1.923414286199212
1772558229055307800,6.496307861328125,-1.2680313923478126,1.443612269528955,2.5342431680530306
1772558229075220000,6.516219970703125,2.9054204132229087,2.859462964168191,1.8983742452278731
1772558229095132000,6.5361318359375,4.709878065130114,2.633882522934675,0.34882600489109755
1772558229115042800,6.556042724609375,5.4081847394287585,2.3636522081136704,-1.2394034098871052
1772558229134955000,6.575955078125,7.259784081739187,2.3522265587359668,-2.932599512049556
1772558229154866000,6.595865966796875,10.146170708668231,1.2765192347079515,-3.7375247325927017
1772558229174778000,6.615778076171875,14.885217000615595,0.21868600554466247,-4.347838358400762
1772558229194690000,6.63568994140625,15.60101549246311,0.3402610787067562,-3.8435450206831097
1772558229214600700,6.6556005859375,13.225882105392216,1.0243882018096744,-2.8390336318626996
1772558229234513000,6.675512939453125,11.445237875270843,1.8774650204509495,-1.5603765083432197
1772558229254423800,6.695423828125,10.890145493686198,1.3542811043024063,-1.5219915403693913
1772558229274335700,6.715335693359375,8.716527781650424,0.5040110501775518,-1.7840207208171486
1772558229294248000,6.735248046875,6.859442701405286,0.6657021894223988,-1.5598197512432932
1772558229314158800,6.755158935546875,4.321541010844707,0.12729005327541382,-1.4739100848980247
1772558229334071000,6.775071044921875,0.9325713572472334,2.2307510734908282,1.0187051877371966
1772558229353982000,6.79498193359375,0.040208676269650453,2.5128487901076673,2.583199214401841
1772558229373894000,6.814893798828125,-0.9299924466699361,1.6919078159175813,1.8356202674120663
1772558229393806000,6.83480615234375,-5.610991623318195,0.5063402603100985,0.4828021118016913
1772558229413716700,6.854716796875,-10.767847147750853,-0.8970985503930597,-1.8373067591942847
1772558229433628700,6.874628662109375,-17.31068824378252,-1.1965651157662271,-4.769316050265729
1772558229453539800,6.894539794921875,-20.13965728548765,-5.737444750845432,-6.024777007114887
1772558229473451800,6.91445166015625,-14.447756142199038,-8.159884663492441,-5.435419367834926
1772558229493364000,6.934364013671875,-12.360274160349368,-3.674097677820921,0.39447365734428164
1772558229513275000,6.95427490234375,-13.024040851664543,1.504672156777978,5.985865384918451
1772558229533186800,6.974186767578125,-12.590863369655608,3.8976080347821114,7.174766541928053
1772558229553098000,6.994097900390625,-8.213917866975068,4.128748740491271,6.360652637279033
1772558229573010000,7.014010009765625,-3.4198844318211075,2.8906349320232865,3.522401387965679
1772558229592921900,7.033921875,0.7842191171228885,2.324898260696977,0.8019742617830634
1772558229612832800,7.053832763671875,5.040516963684558,2.079466725437343,-0.9968541520655154
1772558229632744700,7.07374462890625,7.683207646974921,1.0798179011519997,-2.5814658147379754
1772558229652655900,7.09365576171875,10.446094735485314,-0.4210778788924217,-3.927936829811334
1772558229672567800,7.11356787109375,11.182681163817643,-0.5260857385372743,-4.398770380997657
1772558229692479700,7.133479736328125,11.317186664897203,-0.4699779938029125,-4.525927857401967
1772558229712391000,7.153390869140625,11.565311530894041,-0.41178697652108964,-3.225463975743949
1772558229732302800,7.173302734375,10.652928975194692,0.46726723700687284,-0.9744850838690996
1772558229752214000,7.193214111328125,10.513343978893756,0.36960758470036087,-0.3541210425592959
1772558229772126000,7.2131259765625,9.863213014221191,0.19794302244642747,-0.6785746766075491
1772558229792038000,7.233037841796875,6.052054305619001,1.1687298180531709,-0.0908001418005675
1772558229811949000,7.252948974609375,4.027489675453305,1.8531854424580931,1.1523117672156542
1772558229831861000,7.272861083984375,4.7956087216466665,1.4632619957640767,0.24554778205044567
1772558229851772000,7.29277197265625,4.127970157334208,0.476626455374062,0.05593224203698337
1772558229871683800,7.312683837890625,0.1345318045645952,-0.4742992545355111,-1.2465581039473415
1772558229891595800,7.332595703125,-4.060803916034102,0.9677648357033729,-0.6672085023321211
1772558229911507000,7.3525068359375,-7.613328639584779,2.469350424642861,-0.1742411164773628
1772558229931419000,7.3724189453125,-8.125677273464202,2.151174701820314,-0.3505914071284234
1772558229951330000,7.392330078125,-8.478796883895992,0.571649402501434,-0.6190189103111624
1772558229971242000,7.412241943359375,-7.496477453139424,-3.695904143698513,-2.5162004386231303
1772558229991154000,7.43215380859375,-7.737999559870362,-6.983606256690621,-3.9863261826768515
1772558230011064000,7.45206396484375,-9.737650113531947,-6.493985587447881,-2.2833131815075873
1772558230030976000,7.47197607421875,-10.014202032589912,-3.4421178909391164,-0.7115102200690656
1772558230050887200,7.49188720703125,-11.0019329670012,-0.0844406258391682,1.0417122615762053
1772558230070799000,7.511799072265625,-12.78006375299692,4.090393290872871,1.2882600875146686
1772558230090711000,7.5317109375,-10.486653540366888,4.404282130156457,3.3489214285865425
1772558230110622200,7.551622314453125,-2.2354887695372105,3.3682404615625736,2.507086281058192
1772558230130534100,7.5715341796875,4.498449483367801,2.7292075217485428,2.363287320324033
1772558230150445300,7.5914453125,4.261275634974241,3.1640061752185225,2.7086773594170808
1772558230170357200,7.611357177734375,4.243500324308872,2.3138125107981264,1.2962279976539313
1772558230190269000,7.63126904296875,6.315540406876802,-0.11696540567586197,-0.5020812146261334
1772558230210180000,7.65118017578125,7.671276970684528,-1.9443121127992866,-3.0356150653660294
1772558230230092000,7.671092041015625,8.506503221467137,-2.7500395896360277,-4.935186119163036
1772558230250004000,7.69100390625,9.711619600218533,-1.9785741556242107,-4.753990470840036
1772558230269915100,7.7109150390625,10.6861122828722,-1.2057628599613903,-4.220975481028854
1772558230289827000,7.7308271484375,11.670521963906287,-0.04624503382444382,-2.324985208328068
1772558230309738200,7.75073828125,10.37422660010457,0.2694461056407541,-1.5080999392695724
