time,seconds_elapsed,z,y,x
1772558249166339000,0.068339111328125,-0.022940028458833694,-0.1073475256562233,-0.1457856446504593
1772558249186250200,0.088250244140625,-0.010792410932481289,-0.08952752500772476,-0.2939918339252472
1772558249206162200,0.108162109375,0.06445564329624176,0.011425448581576347,-0.4330427646636963
1772558249226073300,0.1280732421875,0.19042466580867767,0.21348613500595093,-0.5163587927818298
1772558249245985300,0.1479853515625,0.2241457849740982,0.32355996966362,-0.7038297057151794
1772558249265897200,0.167897216796875,0.16825014352798462,0.17505326867103577,-0.6419962048530579
1772558249285808000,0.18780810546875,-0.11661279946565628,0.10939518362283707,-0.4026523232460022
1772558249305720000,0.207719970703125,-0.01649857684969902,0.13270236551761627,-0.31328773498535156
1772558249325632000,0.227632080078125,0.2741455137729645,0.19119790196418762,-0.2911131680011749
1772558249345543200,0.247543212890625,0.4063950181007385,0.1642344892024994,-0.27913081645965576
1772558249365455000,0.267455078125,0.3046001195907593,-0.1310427188873291,-0.1427556425333023
1772558249385367000,0.287366943359375,0.17228198051452637,-0.20741790533065796,-0.0074760462157428265
1772558249405278200,0.3072783203125,0.09720345586538315,-0.018938031047582626,-0.016805248335003853
1772558249425190100,0.327190185546875,0.05650169029831886,0.08333588391542435,-0.10223793983459473
1772558249445102300,0.347102294921875,-0.027898302301764488,-0.0492999367415905,-0.1590908020734787
1772558249465013200,0.36701318359375,-0.05999404564499855,-0.40026968717575073,-0.054704125970602036
1772558249484925200,0.38692529296875,-0.0563678964972496,-0.5704642534255981,0.3699338138103485
1772558249504837400,0.40683740234375,-0.3324449956417084,-0.4323338568210602,0.822787880897522
1772558249524748000,0.426748046875,-0.22255823016166687,-0.18035781383514404,0.905655562877655
1772558249544660000,0.446659912109375,-0.12833762168884277,-0.0881032645702362,0.809205174446106
1772558249564572200,0.466572265625,-0.09039683640003204,-0.0922418087720871,0.8745722770690918
1772558249584483000,0.486483154296875,-0.06500502675771713,-0.2693324387073517,1.1034486293792725
1772558249604395300,0.506395263671875,-0.017790116369724274,-0.2510814964771271,0.9595683813095093
1772558249624306200,0.52630615234375,0.000097881187684834,-0.12286070734262466,0.5063817501068115
1772558249644218000,0.546218017578125,-0.08269881457090378,0.02628939598798752,0.3448760211467743
1772558249664130300,0.56613037109375,-0.1301078498363495,0.012920062057673931,0.48040857911109924
1772558249684041200,0.586041259765625,-0.13401180505752563,-0.02447262406349182,0.639323353767395
1772558249703953200,0.605953125,-0.16107967495918274,-0.13910330832004547,0.5717242956161499
1772558249723865300,0.625865234375,-0.1734505444765091,-0.14336223900318146,0.10356315225362778
1772558249743776000,0.64577587890625,-0.09904614090919495,0.044277939945459366,-0.4513165056705475
1772558249763688200,0.665688232421875,0.08713086694478989,0.02715301141142845,-0.6982179880142212
1772558249783600000,0.68560009765625,0.19683241844177246,0.043663304299116135,-0.7036926746368408
1772558249803511000,0.705510986328125,0.3129442036151886,0.02412312664091587,-0.4958746135234833
1772558249823423200,0.72542333984375,0.34118911623954773,0.1129414513707161,-0.31132185459136963
1772558249843335200,0.745335205078125,0.20313483476638794,0.12138446420431137,-0.2104320079088211
1772558249863246000,0.76524609375,-0.01833260990679264,-0.016050605103373528,-0.2884388566017151
1772558249883158300,0.785158203125,-0.21458220481872559,-0.17413371801376343,-0.32203492522239685
1772558249903070200,0.8050703125,-0.33620694279670715,-0.23978784680366516,-0.2595364451408386
1772558249922981400,0.8249814453125,-0.3926489055156708,-0.2987678050994873,-0.07814145088195801
1772558249942893300,0.844893310546875,-0.41446346044540405,-0.7282938361167908,0.19807018339633942
1772558249962805200,0.86480517578125,-0.4802244305610657,-0.9594644904136658,0.32629045844078064
1772558249982716200,0.884716064453125,-0.28553906083106995,-0.782652735710144,0.20629556477069855
1772558250002628000,0.904628173828125,0.001466809306293726,-0.6395768523216248,-0.28183692693710327
1772558250022539000,0.9245390625,0.20059150457382202,-0.20091716945171356,-0.5634096264839172
1772558250042451000,0.944450927734375,0.20376010239124298,0.3155038356781006,-0.610323965549469
1772558250062363000,0.96436279296875,0.0325932614505291,0.37512460350990295,-1.3609256744384766
1772558250082274000,0.984274169921875,0.004807038698345423,0.5878791809082031,-1.7902109622955322
1772558250102186000,1.00418603515625,0.09013812243938446,0.5793088674545288,-0.5810861587524414
1772558250122098000,1.024097900390625,0.26347628235816956,0.40209096670150757,0.6388106942176819
1772558250142008800,1.0440087890625,0.3246929347515106,0.3239647448062897,0.6961608529090881
1772558250161920800,1.063920654296875,0.4786619544029236,0.1990952342748642,0.35549628734588623
1772558250181832700,1.083832763671875,0.4507623314857483,0.16121840476989746,0.09466205537319183
1772558250201744000,1.103743896484375,0.4929162263870239,0.02966359630227089,-0.27339035272598267
1772558250221655800,1.12365576171875,0.53489750623703,0.038176678121089935,-0.42780932784080505
1772558250241567700,1.143567626953125,0.7899885177612305,0.19247543811798096,-0.5312536358833313
1772558250261479000,1.16347900390625,0.2904996871948242,0.6588687300682068,-0.4396733045578003
1772558250281390800,1.183390869140625,0.06249985098838806,0.3422822058200836,-0.3484618067741394
1772558250301302800,1.203302734375,-0.06932062655687332,0.03417389839887619,-0.20255404710769653
1772558250321214000,1.2232138671875,-0.09574723243713379,-0.0330597385764122,0.050342295318841934
1772558250341126000,1.2431259765625,-0.020696721971035004,0.05189486965537071,0.2350793331861496
1772558250361038000,1.2630380859375,-0.13096104562282562,0.08327754586935043,0.14290207624435425
1772558250380948700,1.28294873046875,-0.2718605399131775,0.1324102133512497,-0.18484343588352203
1772558250400860700,1.302860595703125,-0.28460171818733215,0.10515621304512024,-0.3732829689979553
1772558250420771800,1.322771728515625,-0.2147761732339859,0.18023233115673065,-0.14883530139923096
1772558250440683800,1.342683837890625,-0.18006649613380432,0.36899903416633606,-0.015573106706142426
1772558250460596000,1.362595947265625,-0.31727316975593567,0.008878927677869797,-0.07046525925397873
1772558250480507000,1.3825068359375,-0.42167797684669495,-0.582781970500946,0.08027254790067673
1772558250500418800,1.402418701171875,-0.5097346901893616,-1.003527283668518,0.4085700213909149
1772558250520331000,1.4223310546875,-0.44600972533226013,-0.9272136092185974,0.5673640966415405
1772558250540242000,1.442241943359375,-0.2735458016395569,-0.19953230023384094,0.3226131200790405
1772558250560153900,1.46215380859375,0.2964927554130554,0.34242016077041626,-0.8704882860183716
1772558250580066000,1.482066162109375,0.6740959882736206,0.8893836736679077,-1.6388390064239502
1772558250599976700,1.501976806640625,0.256841778755188,0.5414538979530334,-0.5295612812042236
1772558250619889000,1.521888916015625,-0.1488945335149765,-0.08978104591369629,1.2154486179351807
1772558250639800800,1.54180078125,-0.19101807475090027,-0.2153240591287613,1.9745033979415894
1772558250659711700,1.561711669921875,-0.22422410547733307,0.19719986617565155,1.8227088451385498
1772558250679624000,1.5816240234375,-0.1325746774673462,0.16244347393512726,1.4381834268569946
1772558250699536000,1.601535888671875,0.09006927162408829,0.10243075340986252,1.054540991783142
1772558250719446800,1.62144677734375,0.16300414502620697,0.06288493424654007,0.5093162059783936
1772558250739359000,1.64135888671875,0.45382073521614075,0.13428348302841187,0.14644069969654083
1772558250759270000,1.661269775390625,0.6607950329780579,0.2316073775291443,-0.11094971746206284
1772558250779182000,1.68118212890625,0.620350182056427,0.324314147233963,-0.3900197148323059
1772558250799094000,1.701093994140625,0.4111019968986511,0.4579680860042572,-0.7060627341270447
1772558250819004700,1.721004638671875,0.2688949406147003,0.6130951046943665,-0.9355292916297913
1772558250838916900,1.740916748046875,0.17284026741981506,0.2824220657348633,-1.0884615182876587
1772558250858828800,1.760828857421875,-0.02162306383252144,-0.04279915615916252,-1.150740146636963
1772558250878739700,1.78073974609375,-0.07793156802654266,-0.140060156583786,-0.9353907108306885
1772558250898652000,1.80065185546875,-0.09569379687309265,-0.03435506671667099,-0.468001127243042
1772558250918563800,1.820563720703125,-0.004620091058313847,0.11395878344774246,0.014392501674592495
1772558250938475000,1.84047509765625,0.02869398705661297,-0.039143942296504974,0.2245279848575592
1772558250958387000,1.860386962890625,0.029789980500936508,-0.19157880544662476,0.3666284382343292
1772558250978299000,1.880298828125,-0.10707490891218185,-0.4847334325313568,0.22162054479122162
1772558250998210000,1.9002099609375,-0.24810630083084106,-0.6802017688751221,-0.23717495799064636
1772558251018122000,1.9201220703125,-0.29426610469818115,-1.0006513595581055,-0.2578003704547882
1772558251038034200,1.9400341796875,-0.18492558598518372,-1.24800443649292,0.7881855368614197
1772558251057945000,1.959945068359375,0.19205595552921295,-0.01792043447494507,0.3374415636062622
1772558251077857000,1.97985693359375,0.42563775181770325,1.0699905157089233,-0.7063901424407959
1772558251097768200,1.999768310546875,0.4974094033241272,1.2106562852859497,0.1328982412815094
1772558251117680000,2.01968017578125,0.3939755856990814,0.3244185149669647,0.5225211381912231
1772558251137592000,2.039592041015625,0.1577339619398117,0.022880295291543007,0.6140369176864624
1772558251157503200,2.059503173828125,0.06089084595441818,0.19571328163146973,0.6629185676574707
1772558251177415200,2.079415283203125,0.08861543983221054,-0.1290522962808609,0.7980976104736328
1772558251197327000,2.0993271484375,-0.04499414563179016,-0.19445684552192688,0.6005145907402039
1772558251217238300,2.11923828125,-0.16604925692081451,-0.0809907540678978,0.08647128939628601
1772558251237150200,2.139150146484375,0.02328965812921524,0.20321007072925568,-0.3591631054878235
1772558251257062100,2.159062255859375,0.13972462713718414,0.3927038609981537,-0.5713306665420532
1772558251276973300,2.178973388671875,0.1628362238407135,0.3828307092189789,-0.7107084393501282
1772558251296885000,2.198885009765625,0.07020525634288788,0.31088992953300476,-1.039041519165039
1772558251316797000,2.218796875,-0.19305165112018585,0.10808570683002472,-1.4542120695114136
1772558251336708000,2.2387080078125,-0.40586039423942566,0.015501707792282104,-1.5278284549713135
1772558251356620000,2.2586201171875,-0.3601609468460083,0.047005027532577515,-1.0264554023742676
1772558251376532000,2.278531982421875,-0.15845246613025665,0.20175838470458984,-0.42895418405532837
1772558251396443100,2.298443115234375,-0.0019885471556335688,0.15717335045337677,-0.004535128362476826
1772558251416355000,2.31835498046875,0.05702491104602814,-0.02635466679930687,0.19834890961647034
1772558251436266200,2.338266357421875,0.07841422408819199,-0.22822335362434387,0.3684176504611969
1772558251456178200,2.35817822265625,0.12367899715900421,-0.24681192636489868,0.37969961762428284
1772558251476090000,2.378090087890625,0.1678062230348587,-0.31775349378585815,-0.001960302237421274
1772558251496001300,2.398001220703125,0.0594775415956974,-0.5749093294143677,-0.6000596880912781
1772558251515913200,2.417913330078125,-0.07475543022155762,-0.6262465715408325,-0.6077184677124023
1772558251535825000,2.437824951171875,-0.14081764221191406,-0.043492358177900314,-0.559390664100647
1772558251555736000,2.457736083984375,0.3081035614013672,0.8695700168609619,-1.2116668224334717
1772558251575648000,2.47764794921875,0.8316984176635742,1.0219722986221313,-1.2598553895950317
1772558251595560200,2.497560302734375,0.9075227379798889,0.27014678716659546,-1.0181045532226562
1772558251615471000,2.51747119140625,0.6488904356956482,0.026654744520783424,-0.8583342432975769
1772558251635383000,2.537383056640625,0.30923643708229065,0.005549475084990263,0.20605753362178802
1772558251655295200,2.557295166015625,-0.0975583866238594,-0.3531402349472046,1.9554247856140137
1772558251675206100,2.5772060546875,-0.11770187318325043,-0.9068548083305359,2.8957362174987793
1772558251695118000,2.5971181640625,-0.5373474955558777,-0.5687068700790405,2.0539112091064453
1772558251715030300,2.6170302734375,-0.671536922454834,-0.22684752941131592,0.7962429523468018
1772558251734941200,2.636941162109375,-0.40362516045570374,0.29733872413635254,0.3024386167526245
1772558251754853400,2.656853271484375,-0.044125206768512726,0.4561600685119629,-0.06940725445747375
1772558251774765000,2.67676513671875,-0.036936983466148376,0.2921799421310425,-0.3536911904811859
1772558251794676000,2.696676025390625,-0.09239067882299423,0.08206954598426819,-0.47195085883140564
1772558251814588200,2.716588134765625,-0.20094992220401764,-0.18669426441192627,-0.43995484709739685
1772558251834499000,2.7364990234375,-0.1982106864452362,-0.36156728863716125,-0.5094982981681824
1772558251854411000,2.756410888671875,-0.21567392349243164,-0.39243170619010925,-0.6012480854988098
1772558251874323200,2.7763232421875,-0.21946145594120026,-0.163602814078331,-0.4905616044998169
1772558251894234000,2.796234130859375,-0.16597609221935272,-0.07346677780151367,-0.027608130127191544
1772558251914146300,2.816146240234375,-0.08543264865875244,-0.07930388301610947,0.5351936221122742
1772558251934058200,2.836058349609375,-0.07673197239637375,-0.1694348305463791,0.8814183473587036
1772558251953969200,2.85596923828125,-0.2769518792629242,-0.406570702791214,0.9356974363327026
1772558251973881300,2.87588134765625,-0.5287178754806519,-0.8855010271072388,0.7637597918510437
1772558251993793300,2.895793212890625,-0.6078770160675049,-1.2930089235305786,0.3284244239330292
1772558252013704000,2.915703857421875,-0.34911343455314636,-0.26796993613243103,-0.6126667261123657
1772558252033616600,2.93561669921875,-0.0259708222001791,0.8372424244880676,-1.4250195026397705
1772558252053528600,2.955528564453125,0.6055265665054321,0.5560022592544556,-0.9402217268943787
1772558252073439500,2.975439453125,0.8881585597991943,0.9376567006111145,-1.5439631938934326
1772558252093351700,2.9953515625,0.6838929057121277,0.8305197954177856,-2.046921491622925
1772558252113262600,3.0152626953125,0.5917075872421265,0.31083452701568604,-1.4346120357513428
1772558252133174800,3.0351748046875,0.4104178845882416,-0.021429147571325302,0.6103197932243347
1772558252153086700,3.055086669921875,0.1188366711139679,0.015268415212631226,1.739806056022644
1772558252172997400,3.074997314453125,-0.08135504275560379,-0.2537449598312378,1.5292333364486694
1772558252192909600,3.09490966796875,-0.24089954793453217,-0.711589515209198,0.8756367564201355
1772558252212821500,3.114821533203125,-0.43311458826065063,-0.5497062802314758,0.3948397934436798
1772558252232732400,3.134732421875,-0.22548750042915344,-0.004727688152343035,0.31529802083969116
1772558252252644600,3.15464453125,0.1294620931148529,0.3883272409439087,-0.08786889165639877
1772558252272556500,3.174556640625,0.1407560408115387,0.3368653953075409,-0.4912114143371582
1772558252292467700,3.1944677734375,-0.06025560200214386,0.2043677419424057,-0.5453218221664429
1772558252312379600,3.214379638671875,-0.2731119692325592,0.06325697898864746,-0.4889977276325226
1772558252332291600,3.23429150390625,-0.3913555443286896,-0.0665292739868164,-0.2911953628063202
1772558252352202800,3.25420263671875,-0.4199962019920349,-0.1701802909374237,0.25884708762168884
1772558252372114700,3.27411474609375,-0.359997421503067,-0.13389550149440765,0.9353845119476318
1772558252392026600,3.294026611328125,-0.2791379690170288,-0.07543221861124039,1.3063018321990967
1772558252411937500,3.3139375,-0.24726197123527527,-0.18382444977760315,1.2565621137619019
1772558252431849500,3.333849365234375,-0.25636041164398193,-0.38514742255210876,1.054551362991333
1772558252451760600,3.3537607421875,-0.2514290511608124,-0.5032799243927002,0.7619540095329285
1772558252471672600,3.373672607421875,-0.3019642233848572,-0.29962295293807983,0.3591819405555725
1772558252491584500,3.39358447265625,-0.2637568414211273,-0.09718248248100281,0.14390814304351807
1772558252511495700,3.41349560546875,-0.20458818972110748,-0.04147954657673836,-0.06307823956012726
1772558252531407600,3.43340771484375,-0.15613678097724915,0.3450157344341278,-0.6222740411758423
1772558252551319600,3.453319580078125,0.12736941874027252,0.6642898321151733,-0.6540313959121704
1772558252571230700,3.473230712890625,0.14798155426979065,0.8002878427505493,-0.2082989662885666
1772558252591142700,3.493142578125,-0.019051531329751015,0.605518102645874,0.23400205373764038
1772558252611054600,3.5130546875,-0.19731903076171875,0.3412065804004669,0.5831513404846191
1772558252630965500,3.532965576171875,-0.19621503353118896,0.23043371737003326,0.9704251885414124
1772558252650877400,3.55287744140625,-0.12389270961284637,0.16695034503936768,1.2238943576812744
1772558252670789400,3.572789306640625,-0.05749472975730896,-0.00804545171558857,1.217448115348816
1772558252690700500,3.592700439453125,-0.0519087016582489,-0.2048298716545105,0.9386782050132751
1772558252710612500,3.612612548828125,0.029617736116051674,-0.06482511758804321,0.5706205368041992
1772558252730524400,3.6325244140625,0.3391442596912384,0.18762846291065216,0.09219647198915482
1772558252750435600,3.652435546875,0.34443989396095276,0.2744683027267456,-0.14889374375343323
1772558252770347500,3.672347412109375,0.3546319901943207,0.16553431749343872,-0.21585601568222046
1772558252790259700,3.692259765625,0.2683046758174896,0.007177729159593582,-0.21806584298610687
1772558252810170600,3.712170654296875,0.13228890299797058,-0.04293416440486908,-0.19331081211566925
1772558252830082600,3.73208251953125,0.025450363755226135,-0.08320143073797226,-0.2064947485923767
1772558252849993500,3.751993408203125,-0.002170440973713994,-0.07780534029006958,-0.29559093713760376
1772558252869905400,3.771905517578125,-0.042984623461961746,-0.03513779863715172,-0.34247255325317383
1772558252889817600,3.791817626953125,-0.025160524994134903,0.076820969581604,-0.16229303181171417
1772558252909728500,3.811728515625,-0.0003553888527676463,0.005643739830702543,0.11676417291164398
1772558252929640400,3.831640380859375,0.020907586440443993,-0.09091715514659882,0.16169333457946777
1772558252949552600,3.851552734375,0.018806511536240578,0.03979053720831871,-0.12724022567272186
1772558252969463600,3.871463623046875,0.07523947209119797,0.5484987497329712,-0.6229573488235474
1772558252989375500,3.89137548828125,0.010929946787655354,1.1843503713607788,-1.1862794160842896
1772558253009287700,3.91128759765625,-0.08919914066791534,0.5867092609405518,-0.5441054701805115
1772558253029201000,3.931200927734375,0.06473586708307266,-0.6035063862800598,0.43613648414611816
1772558253049112800,3.95111279296875,0.2655119001865387,-1.0217622518539429,0.45485034584999084
1772558253069024800,3.971024658203125,0.055993154644966125,0.05093241482973099,0.11786851286888123
1772558253088936000,3.99093603515625,-0.5277214646339417,0.521075427532196,-0.4506652355194092
1772558253108847900,4.010847900390625,-0.1812169998884201,0.2579396367073059,-0.8709301948547363
1772558253128758800,4.0307587890625,0.07801973074674606,0.19784460961818695,-0.5072031021118164
1772558253148671000,4.0506708984375,0.2511599063873291,0.24990727007389069,0.6421597599983215
1772558253168583000,4.0705830078125,0.508284866809845,-0.03432949632406235,1.7663687467575073
1772558253188494000,4.090494140625,0.7697550654411316,-0.46587029099464417,1.958161473274231
1772558253208406000,4.110406005859375,0.40997180342674255,-0.5109410285949707,1.148506760597229
1772558253228318000,4.13031787109375,0.1482735574245453,-0.22002293169498444,0.14174896478652954
1772558253248228900,4.150228759765625,0.27844342589378357,0.19080722332000732,-0.22501680254936218
1772558253268140800,4.170140869140625,0.38312050700187683,0.3471326231956482,-0.22930271923542023
1772558253288052700,4.190052734375,0.26713788509368896,0.3320750892162323,-0.3989037573337555
1772558253307964000,4.2099638671875,0.12259689718484879,0.09157595783472061,-0.801945149898529
1772558253327875800,4.229875732421875,0.046875227242708206,-0.12053787708282471,-1.1127922534942627
1772558253347787800,4.249787841796875,-0.013663173653185368,-0.20397579669952393,-1.1010774374008179
1772558253367699000,4.269698974609375,0.04326764494180679,-0.040267013013362885,-0.6767614483833313
1772558253387611000,4.28961083984375,0.07353920489549637,0.09019298851490021,0.0249598678201437
1772558253407522800,4.309522705078125,0.004349136725068092,0.0644727274775505,0.6724717617034912
1772558253427434000,4.32943408203125,-0.016645114868879318,-0.08978451043367386,1.0028014183044434
1772558253447346000,4.349345947265625,-0.03379802405834198,-0.17599472403526306,1.0020811557769775
1772558253467257900,4.3692578125,-0.12990543246269226,-0.2602095305919647,0.558928906917572
1772558253487168800,4.389168701171875,-0.297695130109787,-0.2939232587814331,0.0275250356644392
1772558253507080700,4.409080810546875,-0.3791060745716095,-0.24160490930080414,-0.2502428889274597
1772558253526992000,4.428991943359375,-0.3887057900428772,-0.19775812327861786,-0.04217088595032692
1772558253546903800,4.44890380859375,-0.3084089756011963,-0.4318683445453644,0.21117420494556427
1772558253566815700,4.468815673828125,-0.16720983386039734,-0.4292376637458801,0.302580863237381
1772558253586727000,4.488726806640625,0.06377904862165451,0.09599282592535019,0.5495052337646484
1772558253606638800,4.508638916015625,0.08938653767108917,0.25755828619003296,0.6253226399421692
1772558253626551000,4.528551025390625,-0.0009684485266916454,0.10474368929862976,0.4265505075454712
1772558253646462000,4.5484619140625,-0.09070421010255814,0.08750826120376587,0.11973290145397186
1772558253666374000,4.568373779296875,-0.17783278226852417,0.15967275202274323,0.0422237403690815
1772558253686286000,4.5882861328125,-0.2250489443540573,0.0464218333363533,0.3375420570373535
1772558253706196700,4.60819677734375,-0.25344353914260864,0.012570908293128014,0.3700714111328125
1772558253726108700,4.628108642578125,-0.220879465341568,-0.11369727551937103,-0.18302688002586365
1772558253746020900,4.648020751953125,-0.13828833401203156,0.15882958471775055,-0.7781710624694824
1772558253765931800,4.667931884765625,0.0321214534342289,0.37618744373321533,-1.0589905977249146
1772558253785844000,4.687843994140625,0.12555384635925293,0.3301941454410553,-0.9175530672073364
1772558253805756000,4.707755859375,0.10587625950574875,0.2257028967142105,-0.5665679574012756
1772558253825666800,4.727666748046875,0.0250882375985384,0.01168567594140768,-0.3863440155982971
1772558253845579000,4.7475791015625,-0.0921240746974945,-0.09756863862276077,-0.3978123068809509
1772558253865491000,4.767490966796875,-0.18659861385822296,-0.16654717922210693,-0.6087148785591125
1772558253885401900,4.78740185546875,-0.2247694581747055,-0.24193808436393738,-0.7763908505439758
1772558253905314000,4.80731396484375,-0.1650085598230362,-0.37946903705596924,-0.6899229884147644
1772558253925224700,4.827224609375,-0.16214153170585632,-0.4309322237968445,-0.5684989094734192
1772558253945137000,4.847136962890625,-0.20559196174144745,-0.37648284435272217,-0.612144410610199
1772558253965048800,4.867048828125,-0.15433640778064728,-0.2195773869752884,-0.5657550096511841
1772558253984959700,4.886959716796875,-0.2101835012435913,-0.2516745924949646,-0.22407963871955872
1772558254004872000,4.906871826171875,-0.2927785813808441,-0.3894827961921692,0.2871324121952057
1772558254024781000,4.926781005859375,-0.1719336211681366,-0.32280099391937256,0.6201110482215881
1772558254044692000,4.94669189453125,-0.0008320484776049852,-0.22507044672966003,0.17334535717964172
1772558254064604000,4.96660400390625,-0.09433706849813461,-0.29166755080223083,-0.4911370575428009
1772558254084515800,4.986515869140625,-0.25080278515815735,-0.01728874072432518,-0.7446653246879578
1772558254104426800,5.0064267578125,-0.3710707724094391,0.46463286876678467,-0.31772762537002563
1772558254124339000,5.0263388671875,-0.4009721577167511,0.5198400020599365,0.15886268019676208
1772558254144251000,5.0462509765625,-0.184051051735878,0.12408064305782318,0.5190348625183105
1772558254164162000,5.066162109375,-0.15157005190849304,0.19791999459266663,0.5913441181182861
1772558254184074000,5.086073974609375,-0.06222548708319664,0.2776465117931366,0.8153342008590698
1772558254203986000,5.10598583984375,0.0882398784160614,0.13686782121658325,0.9659452438354492
1772558254223897000,5.12589697265625,0.12716764211654663,-0.01940300688147545,0.8162916898727417
1772558254243809000,5.14580908203125,0.09073759615421295,-0.13638928532600403,0.6247974634170532
1772558254263721000,5.165720947265625,0.2610000669956207,0.02175881341099739,0.556614100933075
1772558254283632000,5.185632080078125,0.29486703872680664,0.04334615543484688,0.5022033452987671
1772558254303545000,5.205545166015625,0.15793922543525696,-0.03298618644475937,0.42043477296829224
1772558254323457000,5.22545703125,0.04568326100707054,-0.06454464793205261,0.06937208026647568
1772558254343369000,5.245368896484375,-0.016495712101459503,-0.07143852859735489,-0.5101652145385742
1772558254363280000,5.26527978515625,-0.02734374813735485,-0.06937721371650696,-0.9949936866760254
1772558254383191800,5.28519189453125,0.04195322096347809,-0.05659566447138786,-1.208286166191101
1772558254403103000,5.30510302734375,0.0744587779045105,-0.020731419324874878,-1.2401987314224243
1772558254423015000,5.325014892578125,0.0446164570748806,0.0750342532992363,-0.9502410888671875
1772558254442926800,5.3449267578125,0.063446044921875,0.14808958768844604,-0.3809540271759033
1772558254462838000,5.364838134765625,0.18792128562927246,-0.021580692380666733,0.062199413776397705
1772558254482750000,5.38475,0.1812019795179367,-0.3552723526954651,0.06708090752363205
1772558254502662000,5.404661865234375,-0.16733717918395996,-0.567322850227356,-0.2430129051208496
1772558254522573000,5.424572998046875,-0.47294989228248596,-0.3190933167934418,-0.6796151995658875
1772558254542485000,5.444485107421875,-0.2021559327840805,0.15364542603492737,-0.33688101172447205
1772558254562397000,5.46439697265625,0.07942137122154236,0.21379560232162476,-0.11040839552879333
1772558254582307800,5.484307861328125,0.5310131311416626,-0.15607190132141113,-0.22796647250652313
1772558254602219800,5.5042197265625,0.5134305953979492,0.13211622834205627,-0.04049351066350937
1772558254622131700,5.524131591796875,0.07701075822114944,0.2159874141216278,0.2793148159980774
1772558254642043000,5.54404296875,0.06503976881504059,0.12482231855392456,0.24405914545059204
1772558254661954800,5.563954833984375,0.0042775096371769905,0.29674777388572693,0.23158831894397736
1772558254681867000,5.583866943359375,0.15630961954593658,0.14711858332157135,0.598776638507843
1772558254701778000,5.60377783203125,0.31723612546920776,0.07317967712879181,0.8912760615348816
1772558254721689900,5.62368994140625,0.3422280550003052,0.24953098595142365,0.5804115533828735
1772558254741602000,5.64360205078125,0.3646017611026764,0.22452709078788757,0.049697041511535645
1772558254761513000,5.663512939453125,0.389546662569046,0.038243234157562256,-0.3109462857246399
1772558254781425000,5.6834248046875,0.32286688685417175,-0.06027425080537796,-0.3963918387889862
1772558254801337000,5.703337158203125,0.2702520191669464,-0.009757575578987598,-0.30380943417549133
1772558254821247700,5.723247802734375,0.11624652147293091,0.05283922702074051,-0.2618965804576874
1772558254841160000,5.743159912109375,-0.0878899022936821,0.07555119693279266,-0.5178429484367371
1772558254861070800,5.76307080078125,-0.2753250300884247,-0.03970615193247795,-0.800803005695343
1772558254880982800,5.782982666015625,-0.2984142303466797,0.011250264942646027,-1.064956545829773
1772558254900895000,5.80289501953125,-0.25222060084342957,0.0495624840259552,-1.1440123319625854
1772558254920806000,5.822805908203125,-0.24907420575618744,0.060937900096178055,-0.7142089009284973
1772558254940717800,5.8427177734375,-0.2716274559497833,0.011825216002762318,0.2159927636384964
1772558254960630000,5.862630126953125,-0.1559576690196991,-0.292104572057724,0.8776376843452454
1772558254980541000,5.882541015625,-0.09576297551393509,-0.5449618697166443,0.8331754803657532
1772558255000453000,5.902453125,-0.234602689743042,-0.6307609677314758,0.36365586519241333
1772558255020365000,5.922364990234375,-0.458879679441452,-0.6688419580459595,0.060471776872873306
1772558255040276000,5.94227587890625,-0.7040577530860901,-0.4474904537200928,0.030103497207164764
1772558255060188200,5.962188232421875,-0.7172189354896545,0.25178852677345276,-0.19048243761062622
1772558255080100000,5.98210009765625,-0.004410937428474426,0.5233833193778992,-1.422731637954712
1772558255100011000,6.002010986328125,0.26361873745918274,0.9427361488342285,-1.9606494903564453
1772558255119923200,6.021923095703125,0.5222163200378418,0.5002073645591736,-0.783829391002655
1772558255139835100,6.041835205078125,0.2463853657245636,-0.1270139068365097,0.5683296918869019
1772558255159746000,6.06174609375,0.03010534681379795,-0.1142435148358345,1.373740315437317
1772558255179658000,6.081657958984375,0.08233468234539032,0.10791739821434021,1.1890085935592651
1772558255199570000,6.10156982421875,0.2207481414079666,0.20243962109088898,0.928706705570221
1772558255219481000,6.121481201171875,0.3409629762172699,0.09400878846645355,0.6790699362754822
1772558255239393000,6.14139306640625,0.4570559859275818,0.08339396119117737,0.26556435227394104
1772558255259305000,6.161304931640625,0.4385073482990265,-0.047359298914670944,-0.15738873183727264
1772558255279216000,6.181216064453125,0.38523855805397034,-0.21310536563396454,-0.18803566694259644
1772558255299128000,6.201128173828125,0.2319870889186859,-0.41718047857284546,0.09057057648897171
1772558255319040000,6.2210400390625,0.15299443900585175,-0.4854479432106018,0.409245103597641
1772558255338951200,6.240951171875,0.1389167755842209,-0.4294951856136322,0.6252948045730591
1772558255358863000,6.260863037109375,0.0731167122721672,-0.2293466329574585,0.45356452465057373
1772558255378775000,6.280775146484375,0.053396619856357574,-0.10277513414621353,0.07303467392921448
1772558255398686000,6.30068603515625,0.03457977622747421,-0.06893007457256317,-0.13227896392345428
1772558255418598000,6.320597900390625,0.13290166854858398,-0.08809791505336761,0.056938134133815765
1772558255438509800,6.340509765625,0.17587235569953918,-0.13221131265163422,0.2944602072238922
1772558255458421000,6.3604208984375,0.0411309078335762,-0.2249273806810379,0.39085817337036133
1772558255478333000,6.3803330078125,-0.10124380886554718,-0.2420738786458969,0.3449375331401825
1772558255498244000,6.400244140625,-0.28598523139953613,-0.11394071578979492,0.22552771866321564
1772558255518156000,6.420156005859375,-0.4681677520275116,0.24033668637275696,0.35999351739883423
1772558255538068000,6.44006787109375,-0.6002786159515381,0.19386962056159973,0.5141982436180115
1772558255557979100,6.459979248046875,-0.5502955913543701,-0.13613733649253845,0.8359469175338745
1772558255577891000,6.47989111328125,-0.29721251130104065,-0.40978190302848816,0.4746328592300415
1772558255597803000,6.499802978515625,-0.0863339900970459,-0.13335967063903809,-0.25935080647468567
1772558255617714000,6.5197138671875,0.03709948807954788,0.11251615732908249,0.0052220444194972515
1772558255637625900,6.5396259765625,-0.004734543152153492,0.09466685354709625,0.19031141698360443
1772558255657538000,6.5595380859375,0.12432427704334259,0.15361832082271576,0.34186941385269165
1772558255677449000,6.579448974609375,-0.045872658491134644,0.305813729763031,0.4080333709716797
1772558255697361000,6.59936083984375,-0.08940528333187103,0.20901286602020264,0.4991743564605713
1772558255717273000,6.619273193359375,-0.03672138601541519,0.11049053072929382,0.693516194820404
1772558255737184000,6.63918408203125,0.11190550029277802,0.09528974443674088,0.6542502045631409
1772558255757096000,6.659095947265625,0.2784534990787506,0.022135641425848007,0.30977779626846313
1772558255777008000,6.679008056640625,0.27876561880111694,0.1116301417350769,-0.07492386549711227
1772558255796919000,6.6989189453125,0.25705838203430176,0.1092793419957161,-0.14367596805095673
1772558255816831200,6.718831298828125,0.20503602921962738,0.15662924945354462,-0.16844001412391663
1772558255836743200,6.7387431640625,0.16442975401878357,0.08349595963954926,-0.4242262542247772
1772558255856653800,6.75865380859375,0.06155071407556534,-0.027169857174158096,-0.7980064153671265
1772558255876566000,6.77856591796875,0.01325354352593422,-0.081263966858387,-0.8663714528083801
1772558255896478000,6.79847802734375,0.008778474293649197,-0.032430920749902725,-0.7418332695960999
1772558255916388900,6.818388916015625,0.04762328788638115,0.12133419513702393,-0.3473074734210968
1772558255936301000,6.838301025390625,0.04183298349380493,0.069696806371212,0.22256805002689362
1772558255956213000,6.858212890625,0.036655329167842865,-0.017702331766486168,0.612845242023468
1772558255976124200,6.878124267578125,-0.01806902326643467,-0.13600951433181763,0.4223238527774811
1772558255996036000,6.8980361328125,-0.08101373165845871,-0.19538681209087372,-0.0005039827665314078
1772558256015948000,6.917947998046875,-0.05304214358329773,-0.18427878618240356,-0.20695453882217407
1772558256035859700,6.937859619140625,-0.10425050556659698,-0.1323053389787674,-0.06456389278173447
1772558256055771600,6.957771728515625,-0.11665789037942886,-0.23654620349407196,0.3550296425819397
1772558256075683600,6.97768359375,-0.11867894977331161,-0.10451497882604599,0.5741574764251709
1772558256095594800,6.9975947265625,-0.09664233773946762,0.38706010580062866,0.133868008852005
1772558256115506700,7.017506591796875,-0.3696940839290619,0.8484066724777222,-0.5219196081161499
1772558256135418600,7.037418701171875,-0.5272465348243713,0.2304164171218872,-0.9681040644645691
1772558256155329800,7.057329833984375,-0.06249554455280304,-0.4325026869773865,-0.0521930456161499
1772558256175241700,7.07724169921875,-0.06191141530871391,-0.2621258795261383,0.6253818869590759
1772558256195152600,7.097152587890625,0.2565808594226837,-0.0485885813832283,0.378123015165329
1772558256215064600,7.117064697265625,0.22227314114570618,0.21555492281913757,0.2596700191497803
1772558256234976500,7.1369765625,-0.018367402255535126,0.2835736572742462,0.2826010584831238
1772558256254887700,7.1568876953125,-0.10713878273963928,0.23540399968624115,0.11869526654481888
1772558256274799600,7.176799560546875,-0.12037452310323715,0.22496813535690308,-0.1609189361333847
1772558256294711600,7.196711669921875,-0.14951536059379578,0.004651462659239769,-0.2649357318878174
1772558256314622700,7.216622802734375,-0.20126138627529144,-0.26168006658554077,-0.33249789476394653
1772558256334534700,7.23653466796875,-0.20832611620426178,-0.2923498749732971,-0.21072880923748016
1772558256354446600,7.256446533203125,-0.10178530961275101,-0.3889879882335663,-0.10141392797231674
1772558256374357800,7.276357666015625,-0.034796200692653656,-0.32033994793891907,-0.320487916469574
1772558256394269700,7.296269775390625,0.0015859160339459777,-0.05577247589826584,-0.4153648018836975
1772558256414181600,7.316181640625,0.0623587965965271,-0.034649625420570374,-0.39368346333503723
1772558256434092500,7.336092529296875,0.052908897399902344,-0.20030836760997772,-0.13709020614624023
1772558256454004500,7.35600439453125,0.018500367179512978,-0.14760570228099823,0.36264854669570923
1772558256473916400,7.37591650390625,0.03569191321730614,0.05641613155603409,0.5552946329116821
1772558256493827600,7.39582763671875,-0.007598514668643475,0.0979665219783783,0.5265198945999146
1772558256513739500,7.415739501953125,-0.14285048842430115,0.11710399389266968,0.3862837553024292
