time,seconds_elapsed,z,y,x
1772558244208548000,0.133548095703125,0,0,0
1772558244228444000,0.15344384765625,-0.26419544219970703,0.029667139053344727,0.11250948905944824
1772558244248340700,0.1733408203125,-0.20348167419433594,-0.23681855201721191,-0.11642158031463623
1772558244268238300,0.19323828125,0.10835075378417969,-0.11340212821960449,-0.3484480381011963
1772558244288135200,0.21313525390625,0.040622711181640625,0.38818812370300293,-0.35540640354156494
1772558244308031200,0.23303125,0.004822731018066406,1.1035423278808594,-0.6452206373214722
1772558244327928000,0.252927978515625,-0.5141391754150391,1.2674686908721924,-0.9918447732925415
1772558244347825700,0.27282568359375,-0.39590930938720703,0.5788760185241699,-1.1190075874328613
1772558244367722200,0.29272216796875,0.4535970687866211,-1.0574262142181396,-0.4978828430175781
1772558244387618300,0.312618408203125,-0.24338436126708984,-1.3654816150665283,0.43377065658569336
1772558244407515100,0.33251513671875,-0.9340305328369141,-0.6407142877578735,0.6182481050491333
1772558244427412700,0.352412841796875,-2.2319984436035156,-0.08467888832092285,0.514920711517334
1772558244447309600,0.3723095703125,-2.287729263305664,-0.18989157676696777,0.5327011346817017
1772558244467205600,0.39220556640625,-2.1753273010253906,-0.7628251314163208,0.5228971242904663
1772558244487102200,0.412102294921875,-1.5365376472473145,-0.5393805503845215,0.9598859548568726
1772558244506999800,0.431999755859375,-2.495095729827881,-0.3976552486419678,1.087580680847168
1772558244526896600,0.451896728515625,-1.9096298217773438,-0.050238609313964844,1.2286865711212158
1772558244546792700,0.471792724609375,-0.5781106948852539,1.1321148872375488,1.2772918939590454
1772558244566689500,0.491689453125,2.001896858215332,2.3168423175811768,1.1833232641220093
1772558244586587100,0.511587158203125,4.95908260345459,3.1229641437530518,0.9619621634483337
1772558244606484000,0.53148388671875,7.629834175109863,3.482797145843506,0.41681861877441406
1772558244626379800,0.5513798828125,9.964553833007812,3.1818172931671143,-0.1611320972442627
1772558244646276600,0.571276611328125,10.62883186340332,2.987987756729126,-0.29079389572143555
1772558244666174200,0.59117431640625,9.99689769744873,2.701918840408325,-0.31015515327453613
1772558244686071000,0.611071044921875,9.715904235839844,2.2900209426879883,-0.413671612739563
1772558244705966800,0.630966796875,9.923867225646973,2.5538737773895264,-0.11900198459625244
1772558244725864000,0.650864013671875,8.186479568481445,2.4638891220092773,0.3684084415435791
1772558244745761300,0.67076123046875,3.076413154602051,1.12300443649292,1.0642914772033691
1772558244765658000,0.690658203125,-1.5717506408691406,-0.9664475917816162,1.2691057920455933
1772558244785554200,0.71055419921875,-3.696328639984131,-2.7612619400024414,0.8333468437194824
1772558244805451000,0.730450927734375,-5.6198625564575195,-3.865960121154785,0.6880953311920166
1772558244825348600,0.7503486328125,-8.008747100830078,-4.686488628387451,0.894920825958252
1772558244845245400,0.770245361328125,-10.6914701461792,-4.85925817489624,0.7313101291656494
1772558244865141200,0.790141357421875,-12.940250396728516,-4.6277618408203125,0.7828672528266907
1772558244885038000,0.8100380859375,-13.30512523651123,-4.156105995178223,1.1357576847076416
1772558244904935700,0.829935791015625,-11.95366096496582,-3.6519908905029297,0.7585490345954895
1772558244924832500,0.84983251953125,-10.47797679901123,-3.21728777885437,-0.02927464246749878
1772558244944728300,0.869728271484375,-9.51003646850586,-2.800895929336548,-0.40772372484207153
1772558244964625200,0.889625244140625,-8.4569091796875,-2.5841064453125,-0.21106356382369995
1772558244984522800,0.909522705078125,-7.7141432762146,-2.4490966796875,0.05190402269363403
1772558245004419600,0.929419677734375,-7.14886474609375,-2.4736621379852295,0.07547318935394287
1772558245044212500,0.96921240234375,-0.1025991439819336,-0.8971072435379028,-0.2843850255012512
1772558245064110000,0.989110107421875,4.494509696960449,0.810389518737793,-0.23299580812454224
1772558245084006700,1.009006591796875,7.43167781829834,1.6705577373504639,1.010697603225708
1772558245103902700,1.02890283203125,12.102832794189453,3.0246706008911133,1.7646114826202393
1772558245123799600,1.048799560546875,14.457820892333984,3.325697660446167,1.170762300491333
1772558245143697200,1.068697265625,14.197796821594238,5.661202430725098,0.4302154779434204
1772558245163594000,1.088593994140625,15.28764820098877,8.64465618133545,-0.14368069171905518
1772558245183489800,1.10848974609375,18.001300811767578,10.156702041625977,-0.07314485311508179
1772558245203386600,1.12838671875,18.043354034423828,8.603265762329102,-0.289295494556427
1772558245223284200,1.1482841796875,12.762497901916504,5.745965003967285,-0.8288552761077881
1772558245243181000,1.16818115234375,4.742819786071777,1.9920034408569336,-0.7472968101501465
1772558245263076900,1.188076904296875,-1.5737829208374023,-2.1666011810302734,-0.19568490982055664
1772558245282973700,1.2079736328125,-4.725405693054199,-4.93218469619751,0.5916779637336731
1772558245302871300,1.227871337890625,-7.0100603103637695,-6.516195774078369,1.3564401865005493
1772558245322768100,1.24776806640625,-10.116350173950195,-6.627588748931885,1.5670629739761353
1772558245342664200,1.267664306640625,-13.263938903808594,-5.600691795349121,1.976621150970459
1772558245362561000,1.28756103515625,-14.14511489868164,-4.468966960906982,2.246335983276367
1772558245382458600,1.307458740234375,-12.578629493713379,-3.401440143585205,1.9406027793884277
1772558245402355200,1.327355224609375,-10.376025199890137,-2.5576329231262207,1.1991088390350342
1772558245422251300,1.347251220703125,-8.435833930969238,-2.0169525146484375,0.6436918377876282
1772558245442148000,1.367148193359375,-7.219700336456299,-1.542797327041626,0.21584248542785645
1772558245462045700,1.387045654296875,-6.93242073059082,-1.449096441268921,0.03902781009674072
1772558245481942500,1.406942626953125,-7.140315055847168,-1.9453890323638916,0.4397152066230774
1772558245501838300,1.42683837890625,-7.206934928894043,-2.4652388095855713,0.6461098194122314
1772558245521735200,1.446735107421875,-4.9092326164245605,-2.479825735092163,0.15486842393875122
1772558245541632800,1.4666328125,-2.035459041595459,-1.5698559284210205,-0.37308943271636963
1772558245561529600,1.486529541015625,0.3237495422363281,-0.7398263216018677,-0.5054739713668823
1772558245581425400,1.50642529296875,4.456486701965332,0.023298025131225586,-0.06936860084533691
1772558245601322200,1.526322265625,8.692206382751465,1.6247823238372803,0.39920884370803833
1772558245621219800,1.5462197265625,12.211668014526367,2.336538791656494,0.3335133194923401
1772558245641116700,1.56611669921875,14.153736114501953,5.065583229064941,-0.7824058532714844
1772558245661012700,1.5860126953125,15.475883483886719,10.400399208068848,-1.0152782201766968
1772558245680909300,1.605909423828125,17.713336944580078,13.160751342773438,-0.0005411505699157715
1772558245700807200,1.62580712890625,18.21546173095703,10.61972427368164,-0.030655354261398315
1772558245720703700,1.645703857421875,14.809309959411621,6.170923709869385,-0.30465567111968994
1772558245740599800,1.665599853515625,5.628231048583984,1.321232557296753,-0.12541016936302185
1772558245760496600,1.68549658203125,-1.428269386291504,-2.457174777984619,-0.40412503480911255
1772558245780394200,1.705394287109375,-3.623002052307129,-4.817512512207031,-0.6064617037773132
1772558245800291000,1.725291015625,-5.211510181427002,-6.492612361907959,-0.20124387741088867
1772558245820187000,1.745186767578125,-7.4866132736206055,-6.133986473083496,-0.002214193344116211
1772558245840083700,1.765083740234375,-10.17679214477539,-4.328354358673096,0.3008986711502075
1772558245859981300,1.784981201171875,-12.42087173461914,-3.134439468383789,0.7584570646286011
1772558245879878100,1.804878173828125,-11.59007453918457,-1.9908380508422852,0.5527840852737427
1772558245899774000,1.82477392578125,-9.829691886901855,-1.345254898071289,0.5667089223861694
1772558245919670800,1.8446708984375,-8.540899276733398,-1.462137222290039,0.13006141781806946
1772558245939568400,1.864568359375,-8.04443073272705,-2.1917569637298584,-0.010563194751739502
1772558245959465200,1.88446533203125,-7.90157413482666,-3.110323190689087,0.1498115062713623
1772558245979361000,1.904361083984375,-8.074169158935547,-3.709785223007202,0.36927857995033264
1772558245999257900,1.9242578125,-8.603549003601074,-4.1289801597595215,0.7564549446105957
1772558246019155500,1.944155517578125,-7.046302795410156,-3.6473021507263184,0.731642484664917
1772558246039052300,1.96405224609375,-2.8073530197143555,-1.6018157005310059,-0.3083512783050537
1772558246058948000,1.983947998046875,0.731776237487793,0.41797423362731934,-1.3903276920318604
1772558246078845000,2.003844970703125,3.639493942260742,1.4339001178741455,-0.5085439682006836
1772558246098742500,2.023742431640625,9.598830223083496,2.433326482772827,0.7422876954078674
1772558246118639400,2.043639404296875,14.387739181518555,3.4150404930114746,0.13999749720096588
1772558246138535200,2.06353515625,14.268874168395996,5.619734764099121,-0.559184193611145
1772558246158432300,2.083432373046875,14.76132869720459,9.577442169189453,-0.36925750970840454
1772558246178329600,2.10332958984375,16.578872680664062,11.395090103149414,0.4629257321357727
1772558246198226400,2.123226318359375,16.12067985534668,9.323150634765625,0.5820378065109253
1772558246218122500,2.14312255859375,12.246705055236816,5.870749473571777,0.5262441635131836
1772558246238019300,2.163019287109375,5.690191268920898,1.7864532470703125,-0.021966084837913513
1772558246257916700,2.182916748046875,-0.37539100646972656,-1.889327049255371,-0.4267110824584961
1772558246277813500,2.2028134765625,-4.274255275726318,-4.4993896484375,-0.6610544919967651
1772558246297709600,2.22270947265625,-6.715490818023682,-5.849512577056885,-0.6327751874923706
1772558246317606400,2.2426064453125,-9.382660865783691,-5.983820915222168,-0.33867406845092773
1772558246337504000,2.26250390625,-11.254349708557129,-5.1693878173828125,-0.07019999623298645
1772558246357400600,2.282400634765625,-12.712961196899414,-4.369143486022949,0.5915293097496033
1772558246377296600,2.302296630859375,-11.683881759643555,-3.49208664894104,0.36381709575653076
1772558246397193500,2.322193359375,-9.827682495117188,-3.206217050552368,-0.02739769220352173
1772558246417091000,2.342091064453125,-8.708722114562988,-3.350123882293701,-0.0830053985118866
1772558246436987600,2.361987548828125,-8.160063743591309,-3.3003501892089844,0.00631287693977356
1772558246456883700,2.3818837890625,-7.636647701263428,-3.3417892456054688,0.3056704103946686
1772558246476780500,2.401780517578125,-6.832794666290283,-3.3412251472473145,0.42905792593955994
1772558246496678100,2.42167822265625,-6.230126857757568,-3.3162992000579834,0.49274349212646484
1772558246516575000,2.441574951171875,-4.819277286529541,-2.882018804550171,0.22292101383209229
1772558246536470800,2.461470703125,-2.3945016860961914,-1.4947832822799683,-0.39899304509162903
1772558246556367600,2.48136767578125,-0.11342048645019531,-0.5354890823364258,-0.3915696144104004
1772558246576265200,2.50126513671875,5.49614143371582,0.05253863334655762,0.7898255586624146
1772558246596162000,2.521162109375,12.060043334960938,1.9762279987335205,-0.10766944289207458
1772558246616057900,2.541057861328125,13.383199691772461,3.2756595611572266,-1.2986435890197754
1772558246635954700,2.56095458984375,11.563133239746094,5.784131050109863,-0.20191192626953125
1772558246655852300,2.580852294921875,13.547401428222656,9.775238037109375,0.8107943534851074
1772558246675749000,2.6007490234375,15.93014907836914,10.812670707702637,0.9022916555404663
1772558246695645000,2.62064501953125,15.189652442932129,8.417488098144531,1.2524663209915161
1772558246715541800,2.640541748046875,11.654741287231445,5.263099670410156,1.4768366813659668
1772558246735439400,2.660439453125,6.230467796325684,2.1386561393737793,0.40325039625167847
1772558246755336200,2.680336181640625,0.3124351501464844,-0.5940334796905518,-0.5451105833053589
1772558246775232000,2.70023193359375,-1.3873929977416992,-2.6826095581054688,-1.297318458557129
1772558246795128800,2.72012890625,-2.7345786094665527,-4.253641605377197,-1.3324397802352905
1772558246815026400,2.7400263671875,-5.780928134918213,-4.91087532043457,-0.39934930205345154
1772558246834923300,2.75992333984375,-8.662555694580078,-4.272331714630127,0.7433105707168579
1772558246854819000,2.779819091796875,-10.943854331970215,-3.552617073059082,0.8585880994796753
1772558246874716000,2.7997158203125,-11.565010070800781,-3.1536405086517334,0.2171679437160492
1772558246894613500,2.819613525390625,-10.90194320678711,-3.095381259918213,0.08596032857894897
1772558246914510300,2.83951025390625,-9.583292007446289,-3.237755537033081,-0.025267601013183594
1772558246934406100,2.85940625,-8.536405563354492,-3.4775991439819336,-0.10729637742042542
1772558246954303000,2.879302978515625,-8.15229320526123,-3.2761287689208984,0.03302016854286194
1772558246974200600,2.89920068359375,-8.079822540283203,-2.6036081314086914,0.2019140124320984
1772558246994097400,2.919097412109375,-7.721752643585205,-2.2575645446777344,0.21744927763938904
1772558247013993200,2.9389931640625,-7.056411266326904,-1.5375672578811646,0.03537413477897644
1772558247033890000,2.95889013671875,-4.9039716720581055,-0.2659037113189697,0.11416944861412048
1772558247053787600,2.97878759765625,-1.7521319389343262,1.0146746635437012,-0.01157483458518982
1772558247073684500,2.9986845703125,2.349933624267578,0.8505966663360596,0.15980039536952972
1772558247093580300,3.018580322265625,8.327062606811523,1.3560245037078857,1.4831370115280151
1772558247113477000,3.03847705078125,12.707717895507812,2.949826717376709,0.8207916021347046
1772558247133374700,3.058374755859375,13.055350303649902,4.32135009765625,0.04596373438835144
1772558247153271600,3.078271484375,13.558420181274414,6.605897426605225,0.14272336661815643
1772558247173167400,3.09816748046875,15.12666130065918,8.085865020751953,0.8327062129974365
1772558247193064200,3.118064208984375,15.720559120178223,7.721599578857422,1.0670138597488403
1772558247212961800,3.1379619140625,13.612146377563477,5.974983215332031,0.8699325323104858
1772558247232858600,3.157858642578125,8.439343452453613,4.417721748352051,0.18184879422187805
1772558247252754400,3.17775439453125,3.1474790573120117,1.9172239303588867,-0.6554772853851318
1772558247272651300,3.1976513671875,-0.30583763122558594,-0.38110828399658203,-1.2564308643341064
1772558247292548900,3.217548828125,-3.24160099029541,-2.6391990184783936,-0.3792874217033386
1772558247312445700,3.23744580078125,-5.812567234039307,-4.0192742347717285,0.24085578322410583
1772558247332341500,3.257341552734375,-8.542280197143555,-3.9568428993225098,0.8391537666320801
1772558247352238300,3.27723828125,-10.602441787719727,-3.284514904022217,1.2460205554962158
1772558247372136000,3.297135986328125,-11.67618465423584,-2.6320486068725586,1.2898156642913818
1772558247392032800,3.31703271484375,-11.092745780944824,-1.8921161890029907,0.8882553577423096
1772558247411928600,3.336928466796875,-10.158491134643555,-1.6242802143096924,0.7966886758804321
1772558247431825400,3.356825439453125,-9.335530281066895,-1.4833714962005615,0.5171012282371521
1772558247451723000,3.376722900390625,-8.283309936523438,-1.5019644498825073,0.6044524312019348
1772558247471619800,3.396619873046875,-7.663822650909424,-1.5643306970596313,0.42379188537597656
1772558247491515600,3.416515625,-7.47855281829834,-1.6708810329437256,0.4072740077972412
1772558247511412500,3.43641259765625,-6.84993839263916,-1.5489078760147095,0.20652461051940918
1772558247531310000,3.45631005859375,-5.6352691650390625,-0.7568116188049316,0.24291348457336426
1772558247551207000,3.47620703125,-3.0127334594726562,0.33010363578796387,-0.22649359703063965
1772558247571102700,3.496102783203125,1.1411981582641602,-0.5073978900909424,-0.7756081223487854
1772558247590999600,3.51599951171875,5.9072370529174805,0.004962921142578125,-0.297815203666687
1772558247610897200,3.535897216796875,10.433972358703613,1.372145175933838,0.23841431736946106
1772558247630794000,3.5557939453125,12.264394760131836,1.8722617626190186,-0.2091873288154602
1772558247650689800,3.575689697265625,14.434459686279297,3.9448258876800537,-0.5167251229286194
1772558247670586600,3.595586669921875,15.974262237548828,5.784344673156738,-1.195505142211914
1772558247690484200,3.615484130859375,16.443410873413086,7.875917434692383,-1.1823439598083496
1772558247710381000,3.635381103515625,16.373525619506836,6.8445820808410645,-0.813653290271759
1772558247730276900,3.65527685546875,12.817697525024414,5.483711242675781,-0.8215528130531311
1772558247750173700,3.675173583984375,6.377676963806152,3.313354015350342,-0.8181931376457214
1772558247770071300,3.6950712890625,0.9286651611328125,0.410186767578125,-0.6930890679359436
1772558247789968100,3.714968017578125,-1.7663259506225586,-1.6961619853973389,0.003671586513519287
1772558247809864000,3.734864013671875,-3.754058837890625,-3.907916784286499,1.3413602113723755
1772558247829760800,3.7547607421875,-6.09621524810791,-5.054745674133301,1.6473331451416016
1772558247849658400,3.774658447265625,-8.597704887390137,-4.455034255981445,1.4397916793823242
1772558247869555200,3.79455517578125,-10.767727851867676,-3.419966220855713,1.1450659036636353
1772558247889451000,3.814450927734375,-11.733942985534668,-2.5268423557281494,1.1897755861282349
1772558247909347800,3.834347900390625,-11.377481460571289,-1.88653564453125,1.1965223550796509
1772558247929245400,3.854245361328125,-10.576034545898438,-1.6479802131652832,0.9280917644500732
1772558247949142300,3.874142333984375,-9.184148788452148,-1.9356961250305176,0.7174816131591797
1772558247969038000,3.8940380859375,-8.284646987915039,-2.3928189277648926,0.6803339719772339
1772558247988935000,3.913934814453125,-8.183493614196777,-2.8957412242889404,0.35587435960769653
1772558248008832500,3.93383251953125,-8.263139724731445,-3.6987862586975098,0.45313209295272827
1772558248028729300,3.953729248046875,-8.170408248901367,-4.1153717041015625,0.8898336887359619
1772558248048625200,3.973625244140625,-5.033627510070801,-2.5936427116394043,0.5342992544174194
1772558248068522000,3.99352197265625,-2.494919776916504,-1.0058646202087402,-0.5460907220840454
1772558248088419600,4.013419677734375,2.5666751861572266,-0.7095036506652832,-0.3970031142234802
1772558248108316400,4.03331640625,8.711797714233398,0.7353100776672363,0.39978593587875366
1772558248128212200,4.053212158203125,12.412524223327637,2.9673218727111816,-0.800227165222168
1772558248148109000,4.073109130859375,14.308680534362793,6.324978828430176,-1.9230715036392212
1772558248168006700,4.093006591796875,15.943477630615234,9.943313598632812,-1.7923368215560913
1772558248187903500,4.112903564453125,16.679691314697266,10.871952056884766,-1.1401090621948242
1772558248207799300,4.13279931640625,16.143068313598633,8.242138862609863,-0.16299235820770264
1772558248227696000,4.152696044921875,12.644654273986816,4.731743812561035,0.22357574105262756
1772558248247593700,4.17259375,6.180536270141602,2.287785530090332,0.14171981811523438
1772558248267490600,4.192490478515625,1.3505926132202148,0.25516438484191895,-0.169885516166687
1772558248287386400,4.212386474609375,-0.5749626159667969,-1.6167216300964355,-0.372766375541687
1772558248307283200,4.232283203125,-2.16610050201416,-2.9938385486602783,-0.46427255868911743
1772558248327180800,4.252180908203125,-4.167764186859131,-3.524855852127075,-0.10650020837783813
1772558248347077600,4.27207763671875,-6.558730125427246,-3.2697670459747314,0.7052122950553894
1772558248366973400,4.291973388671875,-8.614058494567871,-2.899704933166504,1.3846063613891602
1772558248386870300,4.311870361328125,-10.067691802978516,-2.5642199516296387,1.3962517976760864
1772558248406767900,4.331767822265625,-10.631816864013672,-2.309368133544922,0.9773424863815308
1772558248426664700,4.351664794921875,-10.147130012512207,-2.54483962059021,0.5323598384857178
1772558248446560500,4.371560546875,-9.857487678527832,-2.8772311210632324,0.3403811454772949
1772558248466457300,4.391457275390625,-9.285423278808594,-3.2182929515838623,0.6089203357696533
1772558248486355000,4.41135498046875,-8.196460723876953,-3.131211042404175,0.4602316617965698
1772558248506251800,4.431251708984375,-7.1329731941223145,-2.857834815979004,0.23303943872451782
1772558248526147600,4.451147705078125,-6.139848709106445,-2.3722410202026367,0.11815261840820312
1772558248546044400,4.47104443359375,-4.8536458015441895,-1.3923094272613525,0.2860334515571594
1772558248565942000,4.49094189453125,-4.123703479766846,-0.38522911071777344,0.22015327215194702
1772558248585838600,4.510838623046875,-1.0672664642333984,-1.113020658493042,0.06306564807891846
1772558248605734700,4.530734619140625,1.990464210510254,-1.3540120124816895,0.6789635419845581
1772558248625631500,4.550631591796875,7.273087501525879,1.097104787826538,0.4467926025390625
1772558248645529000,4.570529052734375,12.110342979431152,3.211183547973633,-2.3353781700134277
1772558248665425700,4.59042578125,11.384284019470215,3.2620937824249268,-0.9203537702560425
1772558248685321700,4.61032177734375,10.114696502685547,6.375496864318848,0.8163914084434509
1772558248705218600,4.630218505859375,11.675535202026367,8.724522590637207,-0.19352620840072632
1772558248725116200,4.6501162109375,11.205446243286133,9.819218635559082,-0.9432191848754883
1772558248745012700,4.6700126953125,14.331891059875488,5.107795715332031,-2.269726276397705
1772558248764908800,4.68990869140625,10.304848670959473,1.215139389038086,-1.3866798877716064
1772558248784805600,4.7098056640625,6.474167823791504,-0.3518083095550537,1.052229404449463
1772558248804703200,4.729703125,2.2490530014038086,-3.045125722885132,2.050370216369629
1772558248824599800,4.749599853515625,0.9638776779174805,-6.007814407348633,-0.6647593379020691
1772558248844496000,4.769495849609375,0.07416915893554688,5.436576843261719,-0.6664111018180847
1772558248864392700,4.789392822265625,-1.91810941696167,-0.6963379383087158,0.7694348692893982
1772558248884290300,4.809290283203125,-5.269583702087402,-3.08190655708313,1.0745644569396973
1772558248904187000,4.829186767578125,-10.192975997924805,-4.5838942527771,0.45116376876831055
1772558248924083000,4.8490830078125,-12.589990615844727,-4.566564559936523,0.4501860737800598
1772558248943979800,4.868979736328125,-12.997076034545898,-4.393131732940674,0.4497695863246918
1772558248963877400,4.88887744140625,-12.25916576385498,-4.046978950500488,0.09220762550830841
1772558248983774000,4.90877392578125,-10.563883781433105,-3.718353271484375,-0.647727370262146
1772558249003670000,4.928669921875,-8.766294479370117,-2.511768341064453,-0.768044114112854
1772558249023566800,4.94856689453125,-7.558056354522705,-1.8947865962982178,-0.4454943835735321
1772558249043464400,4.96846435546875,-6.746199607849121,-1.6397403478622437,-0.2244780957698822
1772558249063361000,4.988361083984375,-5.233720779418945,-0.8780386447906494,0.09890877455472946
1772558249083257000,5.008257080078125,-3.579720973968506,-0.3464353084564209,0.15556088089942932
1772558249103154000,5.02815380859375,-1.5646624565124512,-0.41702771186828613,0.3607844114303589
1772558249123051300,5.04805126953125,3.859616279602051,0.14547228813171387,-0.3814849257469177
1772558249142948000,5.067947998046875,8.956122398376465,2.4692506790161133,-0.6999207735061646
1772558249162844200,5.08784423828125,11.306415557861328,2.718017578125,-0.9127906560897827
1772558249182740700,5.10774072265625,14.09276294708252,5.4165496826171875,-1.0249946117401123
1772558249202638300,5.127638427734375,16.56827163696289,8.928779602050781,-1.3118940591812134
1772558249222535200,5.14753515625,17.362112045288086,9.949745178222656,-0.606683611869812
1772558249242431000,5.167430908203125,16.452613830566406,7.4950385093688965,0.6746012568473816
1772558249262327800,5.187327880859375,12.661429405212402,4.38720178604126,1.490322232246399
1772558249282225400,5.207225341796875,4.897088050842285,1.2326772212982178,1.335395336151123
1772558249302122200,5.227122314453125,-2.195797920227051,-1.478027105331421,1.1720023155212402
1772558249322018300,5.247018310546875,-4.029301166534424,-3.460439443588257,1.0187872648239136
1772558249341915100,5.2669150390625,-3.8443779945373535,-4.157195568084717,0.23350223898887634
1772558249361812500,5.2868125,-6.08574914932251,-4.090035438537598,-0.39860105514526367
1772558249381709300,5.306709228515625,-9.686344146728516,-3.9265670776367188,0.19820329546928406
1772558249401605000,5.326605224609375,-11.647960662841797,-3.4692583084106445,0.8982945680618286
1772558249421502000,5.346501953125,-11.224660873413086,-3.04860782623291,1.0377311706542969
1772558249441399600,5.366399658203125,-9.938494682312012,-2.428579330444336,0.8566949963569641
1772558249461296400,5.38629638671875,-9.1355562210083,-2.3018410205841064,0.3502027094364166
1772558249481192200,5.406192138671875,-8.25500774383545,-2.4458186626434326,0.02062210440635681
1772558249501089000,5.426089111328125,-7.604888439178467,-2.3171989917755127,-0.20032018423080444
1772558249520986600,5.445986572265625,-7.529052734375,-2.43414306640625,-0.2837912440299988
1772558249540883500,5.465883544921875,-7.685410499572754,-2.378281831741333,-0.17522555589675903
1772558249560779300,5.485779296875,-7.588610649108887,-1.9537880420684814,0.16973286867141724
1772558249580676000,5.505676025390625,-6.28302001953125,-0.832120418548584,0.14978188276290894
1772558249600573700,5.52557373046875,-1.6905150413513184,-0.5733511447906494,0.19325274229049683
1772558249620470500,5.545470458984375,5.353392601013184,0.14287590980529785,0.005221366882324219
1772558249640366300,5.565366455078125,10.317948341369629,1.2186472415924072,-0.4632900357246399
1772558249660263200,5.58526318359375,11.033400535583496,2.018277168273926,-0.6382670402526855
1772558249680160800,5.605160888671875,12.096465110778809,5.451093673706055,-0.02745652198791504
1772558249700057600,5.6250576171875,14.029410362243652,8.130097389221191,0.13340187072753906
1772558249719953400,5.644953369140625,16.37000274658203,7.161427021026611,0.5107948780059814
1772558249739850200,5.664850341796875,16.56420135498047,5.315054893493652,0.39825448393821716
1772558249759747800,5.684747802734375,11.864629745483398,2.910987138748169,-0.10850918292999268
1772558249779644700,5.704644775390625,5.433188438415527,0.7250881195068359,-0.3118848204612732
1772558249799540500,5.72454052734375,1.5708847045898438,-0.7776060104370117,-0.29061466455459595
1772558249819437300,5.744437255859375,0.3417701721191406,-0.9076881408691406,-0.10615205764770508
1772558249839335000,5.7643349609375,-0.5932693481445312,-0.9115773439407349,0.11294412612915039
1772558249859231700,5.784231689453125,-1.9253287315368652,-1.2257639169692993,0.5263612270355225
1772558249879127600,5.80412744140625,-3.669163227081299,-1.4348657131195068,0.7650043368339539
1772558249899024400,5.8240244140625,-6.666499137878418,-1.6923514604568481,0.8036514520645142
1772558249918922000,5.843921875,-9.55350112915039,-2.279740810394287,1.1648249626159668
1772558249938818800,5.86381884765625,-10.948373794555664,-2.6830997467041016,1.6479253768920898
1772558249958714600,5.883714599609375,-11.441170692443848,-3.185180902481079,1.5365182161331177
1772558249978611500,5.903611572265625,-10.737035751342773,-3.584580421447754,0.9173741340637207
1772558249998509000,5.923509033203125,-9.28498363494873,-3.8385939598083496,0.21871310472488403
1772558250018406000,5.943406005859375,-8.509340286254883,-3.574176549911499,0.00469130277633667
1772558250038301700,5.9633017578125,-8.055792808532715,-3.373265504837036,-0.13151907920837402
1772558250058198500,5.983198486328125,-6.948040008544922,-2.591433525085449,-0.2419796586036682
1772558250078096100,6.00309619140625,-5.501192092895508,-0.9495292901992798,0.20497098565101624
1772558250097993000,6.022992919921875,-4.030853748321533,1.1393604278564453,0.2639302611351013
1772558250117888800,6.042888671875,-1.164337158203125,1.314016342163086,0.1979328989982605
1772558250137785600,6.06278564453125,4.97551155090332,0.8557164669036865,0.6091693639755249
1772558250157683200,6.08268310546875,11.01021957397461,1.8192825317382812,0.25927430391311646
1772558250177580000,6.102580078125,11.816141128540039,1.2786917686462402,-1.0962413549423218
1772558250197475800,6.122475830078125,12.35799789428711,3.8224730491638184,-1.1482610702514648
1772558250217372700,6.14237255859375,14.985515594482422,8.166909217834473,0.08803470432758331
1772558250237270300,6.162270263671875,15.711639404296875,9.155794143676758,0.5330364108085632
1772558250257167000,6.1821669921875,15.016145706176758,6.963277816772461,0.1831902414560318
1772558250277063000,6.20206298828125,10.782698631286621,4.277437210083008,-0.38994377851486206
1772558250296959700,6.221959716796875,4.3144378662109375,1.4091033935546875,-0.5031696557998657
1772558250316857300,6.241857421875,0.3904838562011719,-0.6678197383880615,-0.9280180931091309
1772558250336754200,6.261754150390625,-0.9534540176391602,-2.2030081748962402,-0.8840342164039612
1772558250356650000,6.28164990234375,-2.5480308532714844,-2.9919381141662598,0.07478451728820801
1772558250376546800,6.301546875,-4.9368791580200195,-3.1639273166656494,1.002966046333313
1772558250396444400,6.3214443359375,-7.819493293762207,-3.0415232181549072,2.0917935371398926
1772558250416341000,6.341341064453125,-10.113542556762695,-3.4852421283721924,1.926694393157959
1772558250436237000,6.361237060546875,-11.2215576171875,-3.756136178970337,1.204748272895813
1772558250456134000,6.3811337890625,-11.558241844177246,-3.407705307006836,0.858264684677124
1772558250476031500,6.401031494140625,-10.570401191711426,-3.1659436225891113,0.5881707072257996
1772558250495928000,6.420927978515625,-8.980493545532227,-3.189664363861084,-0.12411504983901978
1772558250515824000,6.44082421875,-7.9238715171813965,-3.2681384086608887,-0.6201603412628174
1772558250535721000,6.460720947265625,-7.609035491943359,-3.3240625858306885,-0.7645576000213623
1772558250555618600,6.48061865234375,-7.592799186706543,-3.042386293411255,-0.5680114030838013
1772558250575515100,6.50051513671875,-6.961225986480713,-2.018606662750244,0.28076326847076416
1772558250595411200,6.5204111328125,-5.152615070343018,-0.4139692783355713,0.7021775245666504
1772558250615308000,6.54030810546875,-2.245239734649658,0.5815529823303223,0.29263389110565186
1772558250635205600,6.56020556640625,3.9648962020874023,0.45429372787475586,-0.6067282557487488
1772558250655102200,6.580102294921875,11.133614540100098,1.280597448348999,-1.3120322227478027
1772558250674998300,6.599998291015625,12.10398006439209,2.4258062839508057,-1.775970697402954
1772558250694895000,6.61989501953125,11.763294219970703,6.076972007751465,-1.1018996238708496
1772558250714792700,6.639792724609375,15.04238510131836,9.741461753845215,0.2817714810371399
1772558250734689300,6.659689208984375,17.68596076965332,8.991580963134766,0.29317036271095276
1772558250754585300,6.67958544921875,16.848392486572266,5.966967582702637,-0.2018008530139923
1772558250774482200,6.699482177734375,11.975292205810547,3.364574670791626,0.07781165838241577
1772558250794379500,6.719379638671875,5.593236923217773,1.8146908283233643,0.5073073506355286
1772558250814276400,6.7392763671875,0.5634040832519531,1.0288572311401367,0.7476316690444946
1772558250834172400,6.75917236328125,-0.8589868545532227,-0.35076355934143066,0.43681800365448
1772558250854069200,6.7790693359375,-0.43357276916503906,-1.5883456468582153,0.31979671120643616
1772558250873966800,6.798966796875,-1.7054500579833984,-2.3913464546203613,0.523058295249939
1772558250893863400,6.818863525390625,-5.1144843101501465,-3.117400646209717,0.9700537919998169
1772558250913759500,6.838759521484375,-8.381561279296875,-3.6248888969421387,1.250465989112854
1772558250933656300,6.85865625,-10.76561164855957,-4.084151268005371,1.1316258907318115
1772558250953553700,6.8785537109375,-11.691313743591309,-4.41444730758667,0.5665791034698486
1772558250973450500,6.898450439453125,-11.197548866271973,-4.167998790740967,0.28889113664627075
1772558250993346600,6.9183466796875,-10.288491249084473,-3.6622958183288574,0.2806263864040375
1772558251013243400,6.938243408203125,-9.372516632080078,-3.4591925144195557,-0.2894492745399475
1772558251033140700,6.958140625,-8.559454917907715,-3.142085552215576,-0.4243004322052002
1772558251053037600,6.97803759765625,-7.677414894104004,-2.531811237335205,-0.1987711787223816
1772558251072933400,6.997933349609375,-7.432374477386475,-1.9015663862228394,0.3342260718345642
1772558251092830200,7.017830322265625,-7.089533805847168,-1.81147301197052,0.7638039588928223
1772558251112727800,7.037727783203125,-5.645768165588379,-1.392621636390686,1.0069295167922974
1772558251132624600,7.057624755859375,-3.537990093231201,0.460860013961792,1.3981366157531738
1772558251152520700,7.077520751953125,0.9564380645751953,0.4142031669616699,0.8087385892868042
1772558251172417300,7.097417236328125,6.505094528198242,0.10856914520263672,-0.6135950684547424
1772558251192315000,7.11731494140625,10.20499038696289,2.0227842330932617,-1.6658159494400024
1772558251212211700,7.137211669921875,12.649630546569824,4.615382194519043,-2.466546058654785
1772558251232107500,7.157107421875,17.316043853759766,9.501734733581543,-3.925107479095459
1772558251252004400,7.17700439453125,21.67266082763672,12.94839859008789,-4.056054592132568
1772558251271902000,7.19690185546875,23.789844512939453,11.179169654846191,-2.584588050842285
