time,seconds_elapsed,z,y,x
1772558244188651300,0.1136513671875,-0.35261157155036926,-0.2796153426170349,-0.21959958970546722
1772558244208548000,0.133548095703125,-0.333064466714859,-0.29061058163642883,-0.2611372172832489
1772558244228444000,0.15344384765625,-0.30740886926651,-0.20020519196987152,-0.2476985603570938
1772558244248340700,0.1733408203125,-0.3220692276954651,-0.10857810080051422,-0.2110477238893509
1772558244268238300,0.19323828125,-0.35383328795433044,-0.05482354015111923,-0.21593450009822845
1772558244288135200,0.21313525390625,-0.32573428750038147,-0.0010689827613532543,-0.21837788820266724
1772558244308031200,0.23303125,-0.20356485247612,0.013591351918876171,-0.14141114056110382
1772558244327928000,0.252927978515625,-0.0594048947095871,0.03558185324072838,-0.0522274412214756
1772558244347825700,0.27282568359375,0.0016798300202935934,-0.024281177669763565,-0.08643488585948944
1772558244367722200,0.29272216796875,-0.06306997686624527,-0.1513374149799347,-0.23059484362602234
1772558244387618300,0.312618408203125,-0.12904147803783417,-0.19287502765655518,-0.27946263551712036
1772558244407515100,0.33251513671875,-0.14492350816726685,-0.20142687857151031,-0.15484978258609772
1772558244427412700,0.352412841796875,-0.14858859777450562,-0.15866757929325104,-0.06810946762561798
1772558244447309600,0.3723095703125,-0.14248012006282806,-0.1391204595565796,-0.17928366363048553
1772558244467205600,0.39220556640625,-0.15469707548618317,-0.13423368334770203,-0.19027891755104065
1772558244487102200,0.412102294921875,-0.19745637476444244,-0.1378987729549408,0.14690876007080078
1772558244506999800,0.431999755859375,-0.2707580327987671,-0.0975828468799591,0.5024218559265137
1772558244526896600,0.451896728515625,-0.32695600390434265,-0.18065807223320007,0.5781669020652771
1772558244546792700,0.471792724609375,-0.32695600390434265,-0.23441264033317566,0.44011545181274414
1772558244566689500,0.491689453125,-0.32939937710762024,-0.004734066314995289,0.3399364948272705
1772558244586587100,0.511587158203125,-0.4747810363769531,0.40453359484672546,0.4559974670410156
1772558244606484000,0.53148388671875,-0.6519267559051514,0.5474718809127808,0.7235485911369324
1772558244626379800,0.5513798828125,-0.7191199064254761,0.30068957805633545,0.8945857882499695
1772558244646276600,0.571276611328125,-0.6885775923728943,-0.01572931744158268,0.6245913505554199
1772558244666174200,0.59117431640625,-0.617719292640686,-0.19654010236263275,-0.015576604753732681
1772558244686071000,0.611071044921875,-0.5322006940841675,-0.14645062386989594,-0.4211791753768921
1772558244705966800,0.630966796875,-0.43324342370033264,-0.08903098851442337,-0.2721324563026428
1772558244725864000,0.650864013671875,-0.32573428750038147,-0.15500248968601227,0.03695625811815262
1772558244745761300,0.67076123046875,-0.2683146595954895,-0.11712995916604996,0.0393996499478817
1772558244765658000,0.690658203125,-0.2707580327987671,0.04046862944960594,-0.2648022770881653
1772558244785554200,0.71055419921875,-0.27808821201324463,0.07589777559041977,-0.38697174191474915
1772558244805451000,0.730450927734375,-0.22433365881443024,-0.03894151374697685,-0.12797249853610992
1772558244825348600,0.7503486328125,-0.12781979143619537,-0.22463907301425934,0.20555010437965393
1772558244845245400,0.770245361328125,-0.014202198944985867,-0.40544986724853516,0.3900259733200073
1772558244865141200,0.790141357421875,0.06276455521583557,-0.39201122522354126,0.4205683469772339
1772558244885038000,0.8100380859375,0.10063708573579788,-0.1623326539993286,0.3423798978328705
1772558244904935700,0.829935791015625,0.09941539168357849,0.024586603045463562,0.14935214817523956
1772558244924832500,0.84983251953125,0.0590994730591774,0.07467607408761978,-0.13530266284942627
1772558244944728300,0.869728271484375,0.004123218823224306,0.09544488787651062,-0.3955236077308655
1772558244964625200,0.889625244140625,-0.0032069480512291193,0.10399674624204636,-0.509141206741333
1772558244984522800,0.909522705078125,0.033443886786699295,0.0978882759809494,-0.41507071256637573
1772558245004419600,0.929419677734375,0.04443913698196411,0.10521844029426575,-0.25380703806877136
1772558245044212500,0.96921240234375,0.004123218823224306,0.00259610079228878,0.12613995373249054
1772558245064110000,0.989110107421875,0.10918894410133362,-0.009620844386518002,0.25563958287239075
1772558245084006700,1.009006591796875,0.14217470586299896,0.17363333702087402,-0.06322269141674042
1772558245103902700,1.02890283203125,0.05421269312500954,0.3434488773345947,-0.005803049076348543
1772558245123799600,1.048799560546875,0.020005248486995697,0.2835858464241028,0.3509317636489868
1772558245143697200,1.068697265625,0.029778804630041122,0.14431266486644745,-0.16584503650665283
1772558245163594000,1.088593994140625,0.12140589207410812,0.01969982497394085,-0.9013051390647888
1772558245183489800,1.10848974609375,0.24479703605175018,-0.021837789565324783,-0.7388197779655457
1772558245203386600,1.12838671875,0.23868857324123383,0.24449162185192108,0.275186687707901
1772558245223284200,1.1482841796875,0.19592925906181335,0.5108210444450378,0.9739959836006165
1772558245243181000,1.16818115234375,0.21181128919124603,0.47172680497169495,0.5696150660514832
1772558245263076900,1.188076904296875,0.21058958768844604,0.23471805453300476,-0.3686463236808777
1772558245282973700,1.2079736328125,0.21425467729568481,0.01725643500685692,-0.6484143733978271
1772558245302871300,1.227871337890625,0.23380178213119507,-0.20142687857151031,-0.23303823173046112
1772558245322768100,1.24776806640625,0.23624517023563385,-0.36635565757751465,0.0662769302725792
1772558245342664200,1.267664306640625,0.2313583940267563,-0.3309265077114105,0.00030542362947016954
1772558245362561000,1.28756103515625,0.22036315500736237,-0.21120044589042664,-0.027793550863862038
1772558245382458600,1.307458740234375,0.15683503448963165,-0.07803573459386826,-0.08521319180727005
1772558245402355200,1.327355224609375,0.018783552572131157,0.06001574173569679,-0.28190600872039795
1772558245422251300,1.347251220703125,-0.17180079221725464,0.10888352245092392,-0.4627167880535126
1772558245442148000,1.367148193359375,-0.335507869720459,0.00015271181473508477,-0.42484426498413086
1772558245462045700,1.387045654296875,-0.4002576768398285,-0.11835165321826935,-0.16584503650665283
1772558245481942500,1.406942626953125,-0.3758237659931183,-0.1647760421037674,0.18722468614578247
1772558245501838300,1.42683837890625,-0.3086305856704712,-0.1501157134771347,0.4584408700466156
1772558245521735200,1.446735107421875,-0.22311195731163025,-0.27472856640815735,0.6526902914047241
1772558245541632800,1.4666328125,-0.15714046359062195,-0.40544986724853516,0.8115105628967285
1772558245561529600,1.486529541015625,-0.11560284346342087,-0.3370349705219269,0.7345438003540039
1772558245581425400,1.50642529296875,-0.08017370104789734,-0.2160872220993042,0.2348707765340805
1772558245601322200,1.526322265625,-0.1644706279039383,-0.10002623498439789,0.02351761981844902
1772558245621219800,1.5462197265625,-0.3868190348148346,-0.0022906772792339325,0.2996205687522888
1772558245641116700,1.56611669921875,-0.5370874404907227,-0.042606595903635025,0.08582404255867004
1772558245661012700,1.5860126953125,-0.2707580327987671,-0.24907296895980835,-0.3295520842075348
1772558245680909300,1.605909423828125,0.14828316867351532,-0.35413870215415955,-0.30633988976478577
1772558245700807200,1.62580712890625,0.27289602160453796,-0.28938889503479004,0.4840964674949646
1772558245720703700,1.645703857421875,0.10796725004911423,-0.03771981969475746,1.206117868423462
1772558245740599800,1.665599853515625,-0.11682453751564026,0.29091599583625793,0.8029587268829346
1772558245760496600,1.68549658203125,-0.2292204350233078,0.4253024160861969,-0.3381039500236511
1772558245780394200,1.705394287109375,-0.17302247881889343,0.24693500995635986,-0.9281824231147766
1772558245800291000,1.725291015625,-0.072843536734581,-0.06704048812389374,-0.744928240776062
1772558245820187000,1.745186767578125,-0.008093725889921188,-0.34070006012916565,-0.4480564594268799
1772558245840083700,1.765083740234375,0.04443913698196411,-0.3859027624130249,-0.3393256664276123
1772558245859981300,1.784981201171875,0.05421269312500954,-0.1391204595565796,-0.15973655879497528
1772558245879878100,1.804878173828125,0.029778804630041122,0.11499200016260147,0.046729814261198044
1772558245899774000,1.82477392578125,0.009009997360408306,0.20661908388137817,0.10781454294919968
1772558245919670800,1.8446708984375,-0.009315420873463154,0.12354385852813721,0.02473931387066841
1772558245939568400,1.864568359375,-0.06917845457792282,0.01969982497394085,-0.05344913527369499
1772558245959465200,1.88446533203125,-0.14248012006282806,-0.04504998400807381,0.016187451779842377
1772558245979361000,1.904361083984375,-0.1754658818244934,-0.0841442123055458,0.18844637274742126
1772558245999257900,1.9242578125,-0.17180079221725464,-0.059710320085287094,0.2214321345090866
1772558246019155500,1.944155517578125,-0.13392825424671173,-0.13179029524326324,0.1310267299413681
1772558246039052300,1.96405224609375,-0.04963133856654167,-0.4384356141090393,0.19333316385746002
1772558246058948000,1.983947998046875,0.04443913698196411,-0.576487123966217,0.2641914486885071
1772558246078845000,2.003844970703125,0.009009997360408306,-0.20631365478038788,-0.0925433561205864
1772558246098742500,2.023742431640625,-0.19379130005836487,0.20539739727973938,-0.0778830274939537
1772558246118639400,2.043639404296875,-0.2817533016204834,0.21272756159305573,0.6502469182014465
1772558246138535200,2.06353515625,-0.18157434463500977,0.011147962883114815,0.7113316059112549
1772558246158432300,2.083432373046875,0.12751436233520508,-0.2918322682380676,0.2910687327384949
1772558246178329600,2.10332958984375,0.4133908748626709,-0.4897467792034149,0.24342262744903564
1772558246198226400,2.123226318359375,0.40728241205215454,-0.44576579332351685,0.7003363966941833
1772558246218122500,2.14312255859375,0.12873606383800507,-0.1366770714521408,1.1364812850952148
1772558246238019300,2.163019287109375,-0.16935740411281586,0.16019469499588013,0.9263498783111572
1772558246257916700,2.182916748046875,-0.32939937710762024,0.33856210112571716,0.14935214817523956
1772558246277813500,2.2028134765625,-0.335507869720459,0.34100547432899475,-0.4456130862236023
1772558246297709600,2.22270947265625,-0.2414373755455017,0.1382041871547699,-0.4627167880535126
1772558246317606400,2.2426064453125,-0.12904147803783417,-0.05604523420333862,-0.1707318127155304
1772558246337504000,2.26250390625,-0.010537114925682545,-0.07925742864608765,-0.12552911043167114
1772558246357400600,2.282400634765625,0.07742489129304886,0.11499200016260147,-0.29656633734703064
1772558246377296600,2.302296630859375,0.12995775043964386,0.2029540091753006,-0.4480564594268799
1772558246397193500,2.322193359375,0.12995775043964386,0.15408621728420258,-0.6313106417655945
1772558246417091000,2.342091064453125,0.08964183181524277,0.08811471611261368,-0.7852441668510437
1772558246436987600,2.361987548828125,0.06276455521583557,0.06368082761764526,-0.828003466129303
1772558246456883700,2.3818837890625,0.052990999072790146,0.09666658192873001,-0.6484143733978271
1772558246476780500,2.401780517578125,0.06887302547693253,0.06123743951320648,-0.3124483823776245
1772558246496678100,2.42167822265625,0.07009471952915192,0.00015271181473508477,-0.03390202298760414
1772558246516575000,2.441574951171875,0.04688252881169319,-0.03771981969475746,0.19211146235466003
1772558246536470800,2.461470703125,0.06032116711139679,-0.07803573459386826,0.30695074796676636
1772558246556367600,2.48136767578125,0.0847550556063652,0.02214321307837963,0.03573456406593323
1772558246576265200,2.50126513671875,-0.05329642444849014,0.22738789021968842,-0.3124483823776245
1772558246596162000,2.521162109375,-0.19623468816280365,0.26281702518463135,0.1823379099369049
1772558246616057900,2.541057861328125,-0.1375933438539505,0.1369825005531311,0.7040014863014221
1772558246635954700,2.56095458984375,0.02367033064365387,-0.1256818175315857,0.30572906136512756
1772558246655852300,2.580852294921875,0.20081603527069092,-0.44576579332351685,-0.27946263551712036
1772558246675749000,2.6007490234375,0.24968381226062775,-0.60825115442276,-0.10964708030223846
1772558246695645000,2.62064501953125,0.10796725004911423,-0.35536038875579834,0.45477578043937683
1772558246715541800,2.640541748046875,-0.14248012006282806,0.20539739727973938,0.7516475319862366
1772558246735439400,2.660439453125,-0.28541839122772217,0.5425850749015808,0.5561764240264893
1772558246755336200,2.680336181640625,-0.2805316150188446,0.5315898060798645,-0.13530266284942627
1772558246775232000,2.70023193359375,-0.1620272397994995,0.08200624585151672,-0.8011261820793152
1772558246795128800,2.72012890625,-0.0459662564098835,-0.34192174673080444,-0.8915315866470337
1772558246815026400,2.7400263671875,0.004123218823224306,-0.35291701555252075,-0.5519005060195923
1772558246834923300,2.75992333984375,0.06520794332027435,-0.12690351903438568,-0.21226942539215088
1772558246854819000,2.779819091796875,0.15316994488239288,0.08078455179929733,-0.0009162708884105086
1772558246874716000,2.7997158203125,0.2411319613456726,0.2029540091753006,0.15179555118083954
1772558246894613500,2.819613525390625,0.2838912606239319,0.2530434727668762,0.10292776674032211
1772558246914510300,2.83951025390625,0.2655658423900604,0.19928891956806183,-0.04367557913064957
1772558246934406100,2.85940625,0.1910424828529358,0.125987246632576,-0.12430741637945175
1772558246954303000,2.879302978515625,0.12262758612632751,0.12232216447591782,-0.11086877435445786
1772558246974200600,2.89920068359375,0.11896250396966934,0.12720894813537598,-0.021685076877474785
1772558246994097400,2.919097412109375,0.14339639246463776,0.08322793990373611,0.09681928902864456
1772558247013993200,2.9389931640625,0.17882554233074188,0.00259610079228878,0.21898874640464783
1772558247033890000,2.95889013671875,0.23746687173843384,-0.11835165321826935,0.3179459869861603
1772558247053787600,2.97878759765625,0.3205420970916748,-0.14156384766101837,0.27152159810066223
1772558247073684500,2.9986845703125,0.32909396290779114,0.028251685202121735,-0.038788799196481705
1772558247093580300,3.018580322265625,0.18371231853961945,0.12843063473701477,-0.10109522193670273
1772558247113477000,3.03847705078125,0.0859767496585846,-0.10857810080051422,0.3020639717578888
1772558247133374700,3.058374755859375,0.11651911586523056,-0.3968980014324188,-0.022906772792339325
1772558247153271600,3.078271484375,0.18126893043518066,-0.4421007037162781,-0.8377770185470581
1772558247173167400,3.09816748046875,0.20814619958400726,-0.35658207535743713,-1.0967762470245361
1772558247193064200,3.118064208984375,0.10185877978801727,-0.0841442123055458,-0.7082774043083191
1772558247212961800,3.1379619140625,-0.12904147803783417,0.35566580295562744,-0.0791047215461731
1772558247232858600,3.157858642578125,-0.30007871985435486,0.7026270627975464,0.1835595965385437
1772558247252754400,3.17775439453125,-0.34405970573425293,0.7502731680870056,-0.23059484362602234
1772558247272651300,3.1976513671875,-0.2670929729938507,0.4253024160861969,-0.8060129284858704
1772558247292548900,3.217548828125,-0.2145601063966751,0.10888352245092392,-0.9794935584068298
1772558247312445700,3.23744580078125,-0.18157434463500977,-0.019394399598240852,-0.7327113151550293
1772558247332341500,3.257341552734375,-0.1241547018289566,-0.023059483617544174,-0.4162923991680145
1772558247352238300,3.27723828125,-0.054518118500709534,0.05268557742238045,-0.31122666597366333
1772558247372136000,3.297135986328125,-0.010537114925682545,0.1626380831003189,-0.2611372172832489
1772558247392032800,3.31703271484375,-0.001985253533348441,0.22372281551361084,-0.14874130487442017
1772558247411928600,3.336928466796875,-0.022754060104489326,0.26159533858299255,-0.0925433561205864
1772558247431825400,3.356825439453125,-0.037414394319057465,0.24449162185192108,-0.10842538625001907
1772558247451723000,3.376722900390625,-0.036192700266838074,0.11743538826704025,-0.14996300637722015
1772558247471619800,3.396619873046875,-0.07040014863014221,0.05635065957903862,-0.06810946762561798
1772558247491515600,3.416515625,-0.10949437320232391,0.05635065957903862,0.1432436853647232
1772558247511412500,3.43641259765625,-0.09972081333398819,0.03924693539738655,0.34604495763778687
1772558247531310000,3.45631005859375,-0.019088976085186005,-0.08170082420110703,0.5170822143554688
1772558247551207000,3.47620703125,0.11651911586523056,-0.28938889503479004,0.5097520351409912
1772558247571102700,3.496102783203125,0.20814619958400726,-0.37979426980018616,0.17867282032966614
1772558247590999600,3.51599951171875,0.1372879147529602,-0.0853659063577652,-0.18905723094940186
1772558247610897200,3.535897216796875,0.017561858519911766,0.1895153671503067,0.014965757727622986
1772558247630794000,3.5557939453125,0.029778804630041122,0.11254860460758209,0.3558185398578644
1772558247650689800,3.575689697265625,0.111632339656353,-0.14767232537269592,-0.0791047215461731
1772558247670586600,3.595586669921875,0.1898207813501358,-0.31260108947753906,-0.49081575870513916
1772558247690484200,3.615484130859375,0.19226416945457458,-0.19654010236263275,-0.21837788820266724
1772558247710381000,3.635381103515625,0.09452861547470093,-0.0022906772792339325,0.6587987542152405
1772558247730276900,3.65527685546875,-0.010537114925682545,0.12720894813537598,1.2048962116241455
1772558247750173700,3.675173583984375,-0.09483403712511063,0.18585027754306793,0.8640434741973877
1772558247770071300,3.6950712890625,-0.1779092699289322,0.20051060616970062,-0.008246437646448612
1772558247789968100,3.714968017578125,-0.1754658818244934,0.23227466642856598,-0.5372401475906372
1772558247809864000,3.734864013671875,-0.12048961967229843,0.2591519355773926,-0.33443886041641235
1772558247829760800,3.7547607421875,-0.05207473039627075,0.19928891956806183,0.08704573661088943
1772558247849658400,3.774658447265625,0.0016798300202935934,0.07956285774707794,0.21165858209133148
1772558247869555200,3.79455517578125,0.02244863659143448,-0.025502873584628105,0.23120568692684174
1772558247889451000,3.814450927734375,0.011453386396169662,-0.029167955741286278,0.37170055508613586
1772558247909347800,3.834347900390625,-0.021532366052269936,0.08689302206039429,0.40468630194664
1772558247929245400,3.854245361328125,-0.0459662564098835,0.16019469499588013,0.277630090713501
1772558247949142300,3.874142333984375,-0.04840964451432228,0.10644013434648514,0.11147962510585785
1772558247969038000,3.8940380859375,-0.04718795046210289,0.03680354729294777,0.05894676223397255
1772558247988935000,3.913934814453125,-0.04352286830544472,0.00259610079228878,0.18844637274742126
1772558248008832500,3.93383251953125,-0.04230117425322533,-0.01695101149380207,0.3826957941055298
1772558248028729300,3.953729248046875,-0.06306997686624527,-0.06459710001945496,0.40468630194664
1772558248048625200,3.973625244140625,-0.07895200699567795,-0.19776180386543274,0.3130592107772827
1772558248068522000,3.99352197265625,-0.02886253222823143,-0.14767232537269592,0.19211146235466003
1772558248088419600,4.013419677734375,-0.020310672000050545,0.09055810421705246,-0.1585148572921753
1772558248108316400,4.03331640625,-0.1510319858789444,0.36666107177734375,-0.08154810965061188
1772558248128212200,4.053212158203125,-0.22677704691886902,0.27625566720962524,0.4486673176288605
1772558248148109000,4.073109130859375,-0.11560284346342087,-0.07925742864608765,0.13347013294696808
1772558248168006700,4.093006591796875,0.1385096162557602,-0.4811949133872986,-0.30756160616874695
1772558248187903500,4.112903564453125,0.31687700748443604,-0.6558972597122192,-0.11453386396169662
1772558248207799300,4.13279931640625,0.17882554233074188,-0.4934118688106537,0.33382803201675415
1772558248227696000,4.152696044921875,-0.12904147803783417,-0.11712995916604996,0.6441384553909302
1772558248247593700,4.17259375,-0.3489464819431305,0.30313295125961304,0.42789849638938904
1772558248267490600,4.192490478515625,-0.4002576768398285,0.4240806996822357,-0.22937314212322235
1772558248287386400,4.212386474609375,-0.3465031087398529,0.18585027754306793,-0.7876875400543213
1772558248307283200,4.232283203125,-0.2793098986148834,-0.12690351903438568,-0.8854231238365173
1772558248327180800,4.252180908203125,-0.2279987335205078,-0.2710634768009186,-0.721716046333313
1772558248347077600,4.27207763671875,-0.19256959855556488,-0.11835165321826935,-0.4443913698196411
1772558248366973400,4.291973388671875,-0.14492350816726685,0.06856760382652283,-0.06810946762561798
1772558248386870300,4.311870361328125,-0.07895200699567795,0.14797775447368622,0.19333316385746002
1772558248406767900,4.331767822265625,-0.008093725889921188,0.10888352245092392,0.22754059731960297
1772558248426664700,4.351664794921875,0.033443886786699295,-0.0010689827613532543,0.1432436853647232
1772558248446560500,4.371560546875,0.05421269312500954,-0.05360184609889984,0.032069481909275055
1772558248466457300,4.391457275390625,0.033443886786699295,-0.021837789565324783,-0.011911521665751934
1772558248486355000,4.41135498046875,0.020005248486995697,-0.059710320085287094,0.10170606523752213
1772558248506251800,4.431251708984375,0.05665608495473862,-0.19287502765655518,0.29717719554901123
1772558248526147600,4.451147705078125,0.10552386194467545,-0.349251925945282,0.5292991399765015
1772558248546044400,4.47104443359375,0.15805672109127045,-0.37857258319854736,0.8823688626289368
1772558248565942000,4.49094189453125,0.2020377367734909,-0.15378080308437347,1.1291511058807373
1772558248585838600,4.510838623046875,0.10063708573579788,0.17363333702087402,0.8127322793006897
1772558248605734700,4.530734619140625,-0.15469707548618317,0.5596888065338135,0.032069481909275055
1772558248625631500,4.550631591796875,-0.18279604613780975,0.40575528144836426,-0.20371755957603455
1772558248645529000,4.570529052734375,0.013896775431931019,-0.35658207535743713,0.047951508313417435
1772558248665425700,4.59042578125,0.1104106456041336,-0.7988355159759521,-0.39918869733810425
1772558248685321700,4.61032177734375,0.27411770820617676,-0.682774543762207,-1.3802093267440796
1772558248705218600,4.630218505859375,0.4390464723110199,-0.1256818175315857,-1.860335350036621
1772558248725116200,4.6501162109375,0.5868715047836304,0.4912739098072052,-1.1212100982666016
1772558248745012700,4.6700126953125,0.39140036702156067,0.31168481707572937,0.15546062588691711
1772558248764908800,4.68990869140625,-0.05085303261876106,-0.03771981969475746,0.7418739795684814
1772558248784805600,4.7098056640625,-0.358720064163208,-0.20875705778598785,0.4059080183506012
1772558248804703200,4.729703125,-0.8011261820793152,0.0038177953101694584,-0.12797249853610992
1772558248824599800,4.749599853515625,-1.0870027542114258,0.05635065957903862,-0.3161134421825409
1772558248844496000,4.769495849609375,-0.17180079221725464,-0.21853061020374298,-0.11331216990947723
1772558248864392700,4.789392822265625,0.3584146201610565,-0.585038959980011,0.08460234850645065
1772558248884290300,4.809290283203125,0.5050179958343506,-0.8098307251930237,0.2910687327384949
1772558248904187000,4.829186767578125,0.3865135908126831,-0.616802990436554,0.42423340678215027
1772558248924083000,4.8490830078125,0.19470755755901337,-0.18187977373600006,0.4950917065143585
1772558248943979800,4.868979736328125,0.0847550556063652,0.23471805453300476,0.5806103348731995
1772558248963877400,4.88887744140625,0.04932591691613197,0.4778352677822113,0.5500679612159729
1772558248983774000,4.90877392578125,0.06765133142471313,0.47172680497169495,0.35948359966278076
1772558249003670000,4.928669921875,0.22647161781787872,0.256708562374115,0.15912571549415588
1772558249023566800,4.94856689453125,0.448820024728775,0.02214321307837963,0.03817795217037201
1772558249043464400,4.96846435546875,0.5783196687698364,-0.03649812191724777,0.04550812020897865
1772558249063361000,4.988361083984375,0.5758762359619141,-0.01695101149380207,0.3423798978328705
1772558249083257000,5.008257080078125,0.5282301902770996,-0.0462716780602932,0.6490252017974854
1772558249103154000,5.02815380859375,0.47203221917152405,0.05024218559265137,0.3118375241756439
1772558249123051300,5.04805126953125,0.41827765107154846,0.16752485930919647,-0.4712686538696289
1772558249142948000,5.067947998046875,0.40972578525543213,0.1638597846031189,-0.7937960028648376
1772558249162844200,5.08784423828125,0.3058817684650421,0.11743538826704025,-0.698503851890564
1772558249182740700,5.10774072265625,0.24479703605175018,0.013591351918876171,-0.9636115431785583
1772558249202638300,5.127638427734375,0.2948864996433258,-0.0975828468799591,-1.2201673984527588
1772558249222535200,5.14753515625,0.30343836545944214,-0.0975828468799591,-0.8915315866470337
1772558249242431000,5.167430908203125,0.14583978056907654,-0.12201674282550812,0.02473931387066841
1772558249262327800,5.187327880859375,-0.14614520967006683,-0.1378987729549408,0.800515353679657
1772558249282225400,5.207225341796875,-0.48333290219306946,0.17363333702087402,0.8762603998184204
1772558249302122200,5.227122314453125,-0.669030487537384,0.6476507782936096,0.40102121233940125
1772558249322018300,5.247018310546875,-0.6323796510696411,0.6830799579620361,-0.10353861004114151
1772558249341915100,5.2669150390625,-0.43080002069473267,0.1895153671503067,-0.2990097403526306
1772558249361812500,5.2868125,-0.2145601063966751,-0.3455868363380432,-0.25258535146713257
1772558249381709300,5.306709228515625,-0.08017370104789734,-0.4909684956073761,-0.3161134421825409
1772558249401605000,5.326605224609375,-0.05329642444849014,-0.2796153426170349,-0.41384902596473694
1772558249421502000,5.346501953125,-0.07895200699567795,0.0331384651362896,-0.21226942539215088
1772558249441399600,5.366399658203125,-0.08872556686401367,0.27503398060798645,0.17622943222522736
1772558249461296400,5.38629638671875,-0.10582929104566574,0.40819868445396423,0.4022429287433624
1772558249481192200,5.406192138671875,-0.12048961967229843,0.3715478479862213,0.39979952573776245
1772558249501089000,5.426089111328125,-0.10216420143842697,0.1626380831003189,0.29839888215065
1772558249520986600,5.445986572265625,-0.08261708915233612,-0.06948387622833252,0.2593046724796295
1772558249540883500,5.465883544921875,-0.04963133856654167,-0.20753535628318787,0.30572906136512756
1772558249560779300,5.485779296875,-0.03374931216239929,-0.15866757929325104,0.37170055508613586
1772558249580676000,5.505676025390625,-0.023975754156708717,0.06978929787874222,0.3252761662006378
1772558249600573700,5.52557373046875,0.04443913698196411,0.3348970115184784,-0.06688777357339859
1772558249620470500,5.545470458984375,0.23624517023563385,0.30313295125961304,-0.5824428796768188
1772558249640366300,5.565366455078125,0.3242071866989136,-0.013285927474498749,-0.5653391480445862
1772558249660263200,5.58526318359375,0.18004722893238068,-0.31137940287590027,-0.45172154903411865
1772558249680160800,5.605160888671875,0.1238492801785469,-0.5080721974372864,-0.9208522439002991
1772558249700057600,5.6250576171875,0.20081603527069092,-0.5056288242340088,-1.2189457416534424
1772558249719953400,5.644953369140625,0.15927842259407043,-0.27350685000419617,-0.5519005060195923
1772558249739850200,5.664850341796875,-0.023975754156708717,-0.008399149402976036,0.694227933883667
1772558249759747800,5.684747802734375,-0.2976353168487549,0.409420371055603,1.362647533416748
1772558249779644700,5.704644775390625,-0.543195903301239,0.8736643195152283,1.1022738218307495
1772558249799540500,5.72454052734375,-0.5871769189834595,0.9518527388572693,0.4022429287433624
1772558249819437300,5.744437255859375,-0.37948885560035706,0.6061131954193115,-0.35887277126312256
1772558249839335000,5.7643349609375,-0.07528692483901978,0.17118994891643524,-0.8817580342292786
1772558249859231700,5.784231689453125,0.14706148207187653,-0.13179029524326324,-0.8695410490036011
1772558249879127600,5.80412744140625,0.2154763638973236,-0.38956785202026367,-0.45172154903411865
1772558249899024400,5.8240244140625,0.16538690030574799,-0.5190674662590027,0.025961007922887802
1772558249918922000,5.843921875,0.06154286116361618,-0.3578037917613983,0.3411581814289093
1772558249938818800,5.86381884765625,-0.014202198944985867,-0.060932014137506485,0.4706578254699707
1772558249958714600,5.883714599609375,-0.025197450071573257,0.17485502362251282,0.40468630194664
1772558249978611500,5.903611572265625,0.02489202655851841,0.24693500995635986,0.27885177731513977
1772558249998509000,5.923509033203125,0.10308047384023666,0.1369825005531311,0.1969982385635376
1772558250018406000,5.943406005859375,0.1751604527235031,-0.01695101149380207,0.10170606523752213
1772558250038301700,5.9633017578125,0.1629435122013092,-0.11957334727048874,0.05405998229980469
1772558250058198500,5.983198486328125,0.10796725004911423,-0.2576248347759247,0.15546062588691711
1772558250078096100,6.00309619140625,0.09208522737026215,-0.41888850927352905,0.3778090178966522
1772558250097993000,6.022992919921875,0.1507265567779541,-0.3504736125469208,0.46577104926109314
1772558250117888800,6.042888671875,0.23380178213119507,0.1382041871547699,0.12247487902641296
1772558250137785600,6.06278564453125,0.2557922899723053,0.48638713359832764,-0.3014531135559082
1772558250157683200,6.08268310546875,0.21303297579288483,0.17485502362251282,-0.14751961827278137
1772558250177580000,6.102580078125,0.013896775431931019,-0.21120044589042664,-0.06200099736452103
1772558250197475800,6.122475830078125,-0.13392825424671173,-0.3736858069896698,-0.5934380888938904
1772558250217372700,6.14237255859375,-0.021532366052269936,-0.47386476397514343,-0.9147437810897827
1772558250237270300,6.162270263671875,0.07864658534526825,-0.3626905679702759,-0.48104220628738403
1772558250257167000,6.1821669921875,-0.04474456235766411,-0.0841442123055458,0.49020493030548096
1772558250277063000,6.20206298828125,-0.30740886926651,0.3471139669418335,1.182905673980713
1772558250296959700,6.221959716796875,-0.5871769189834595,0.8162446618080139,1.0326372385025024
1772558250316857300,6.241857421875,-0.695907711982727,0.8590039610862732,0.30939415097236633
1772558250336754200,6.261754150390625,-0.5517477989196777,0.36543938517570496,-0.37231141328811646
1772558250356650000,6.28164990234375,-0.27442312240600586,-0.25029465556144714,-0.6911736726760864
1772558250376546800,6.301546875,-0.009315420873463154,-0.5679352283477783,-0.6068767309188843
1772558250396444400,6.3214443359375,0.15805672109127045,-0.5740436911582947,-0.16706672310829163
1772558250416341000,6.341341064453125,0.17149536311626434,-0.37979426980018616,0.32038938999176025
1772558250436237000,6.361237060546875,0.10552386194467545,-0.08170082420110703,0.5549547076225281
1772558250456134000,6.3811337890625,0.06154286116361618,0.3080197274684906,0.5427377820014954
1772558250476031500,6.401031494140625,0.0725381150841713,0.5095993280410767,0.4718795120716095
1772558250495928000,6.420927978515625,0.10674555599689484,0.39476004242897034,0.35826191306114197
1772558250515824000,6.44082421875,0.09575030952692032,0.17974179983139038,0.22021043300628662
1772558250535721000,6.460720947265625,0.04810422286391258,-0.008399149402976036,0.2079934924840927
1772558250555618600,6.48061865234375,0.0713164210319519,-0.19654010236263275,0.2898470163345337
1772558250575515100,6.50051513671875,0.14828316867351532,-0.3480302393436432,0.25686126947402954
1772558250595411200,6.5204111328125,0.2716743052005768,-0.30038413405418396,0.013744063675403595
1772558250615308000,6.54030810546875,0.4537068009376526,0.07834116369485855,-0.43583953380584717
1772558250635205600,6.56020556640625,0.4940227270126343,0.42163732647895813,-0.6019899845123291
1772558250655102200,6.580102294921875,0.3083251416683197,0.2432699203491211,0.007635590620338917
1772558250674998300,6.599998291015625,0.06154286116361618,0.00015271181473508477,0.2605263590812683
1772558250694895000,6.61989501953125,0.06032116711139679,-0.06459710001945496,-0.5030327439308167
1772558250714792700,6.639792724609375,0.24724042415618896,-0.1892099380493164,-1.060125470161438
1772558250734689300,6.659689208984375,0.24846212565898895,-0.2832804024219513,-0.6862868666648865
1772558250754585300,6.67958544921875,-0.039857782423496246,-0.2026485800743103,0.24464432895183563
1772558250774482200,6.699482177734375,-0.4002576768398285,0.05757235363125801,0.9410101771354675
1772558250794379500,6.719379638671875,-0.6226060390472412,0.31534990668296814,0.8481613993644714
1772558250814276400,6.7392763671875,-0.5957288146018982,0.386208176612854,0.11392301321029663
1772558250834172400,6.75917236328125,-0.3978142738342285,0.19684553146362305,-0.5506787896156311
1772558250854069200,6.7790693359375,-0.14492350816726685,-0.17454960942268372,-0.6740699410438538
1772558250873966800,6.798966796875,0.050547610968351364,-0.4506525695323944,-0.41384902596473694
1772558250893863400,6.818863525390625,0.11651911586523056,-0.44454410672187805,-0.055892523378133774
1772558250913759500,6.838759521484375,0.11285403370857239,-0.26251161098480225,0.2373141646385193
1772558250933656300,6.85865625,0.05421269312500954,0.001374406274408102,0.3509317636489868
1772558250953553700,6.8785537109375,-0.02641914412379265,0.254265159368515,0.29229041934013367
1772558250973450500,6.898450439453125,-0.04352286830544472,0.3703261613845825,0.20066332817077637
1772558250993346600,6.9183466796875,0.007788302376866341,0.3214583694934845,0.1053711548447609
1772558251013243400,6.938243408203125,0.032222192734479904,0.2041756957769394,0.002748812548816204
1772558251033140700,6.958140625,0.04443913698196411,0.10155335813760757,-0.027793550863862038
1772558251053037600,6.97803759765625,0.10552386194467545,-0.01817270554602146,0.09926267713308334
1772558251072933400,6.997933349609375,0.19470755755901337,-0.09636115282773972,0.20188501477241516
1772558251092830200,7.017830322265625,0.21791976690292358,-0.04016320779919624,0.2483094036579132
1772558251112727800,7.037727783203125,0.16660858690738678,0.10766182839870453,0.40712970495224
1772558251132624600,7.057624755859375,0.1104106456041336,0.4155288338661194,0.5525113344192505
1772558251152520700,7.077520751953125,0.04321744292974472,0.8052493929862976,0.4034646153450012
1772558251172417300,7.097417236328125,-0.05085303261876106,0.9433009028434753,-0.08154810965061188
1772558251192315000,7.11731494140625,-0.1620272397994995,0.6390989422798157,-0.4883723855018616
1772558251212211700,7.137211669921875,-0.2939702570438385,0.23960483074188232,-1.1859599351882935
1772558251232107500,7.157107421875,-0.2426590770483017,-0.2808370292186737,-2.0582499504089355
1772558251252004400,7.17700439453125,0.09575030952692032,-0.6705575585365295,-1.9971650838851929
1772558251271902000,7.19690185546875,0.2948864996433258,-0.7475243210792542,-0.5494571328163147
